time,.header.seq,.header.stamp.secs,.header.stamp.nsecs,.header.frame_id,.orientation.x,.orientation.y,.orientation.z,.orientation.w,.orientation_covariance,.angular_velocity.x,.angular_velocity.y,.angular_velocity.z,.angular_velocity_covariance,.linear_acceleration.x,.linear_acceleration.y,.linear_acceleration.z,.linear_acceleration_covariance
2024/07/10/17:00:31.097574,15329,1700604915,270412568,,0.521850586,-1.900634766,-3.087158203,0,"(0.0, 0.0, 0.0, 0.0, 0.0, 0.0, 0.0, 0.0, 0.0)",0,0,0,"(0.0, 0.0, 0.0, 0.0, 0.0, 0.0, 0.0, 0.0, 0.0)",0.320605457,0.081347659,9.780858994,"(0.0, 0.0, 0.0, 0.0, 0.0, 0.0, 0.0, 0.0, 0.0)"
2024/07/10/17:00:31.195059,15330,1700604915,370048286,,0.521850586,-1.900634766,-3.087158203,0,"(0.0, 0.0, 0.0, 0.0, 0.0, 0.0, 0.0, 0.0, 0.0)",0,0,0,"(0.0, 0.0, 0.0, 0.0, 0.0, 0.0, 0.0, 0.0, 0.0)",0.320605457,0.090917967,9.780858994,"(0.0, 0.0, 0.0, 0.0, 0.0, 0.0, 0.0, 0.0, 0.0)"
2024/07/10/17:00:31.300429,15331,1700604915,469717967,,0.521850586,-1.900634766,-3.087158203,0,"(0.0, 0.0, 0.0, 0.0, 0.0, 0.0, 0.0, 0.0, 0.0)",0,0,0,"(0.0, 0.0, 0.0, 0.0, 0.0, 0.0, 0.0, 0.0, 0.0)",0.320605457,0.090917967,9.785644531,"(0.0, 0.0, 0.0, 0.0, 0.0, 0.0, 0.0, 0.0, 0.0)"
2024/07/10/17:00:31.394762,15332,1700604915,569369704,,0.521850586,-1.900634766,-3.087158203,0,"(0.0, 0.0, 0.0, 0.0, 0.0, 0.0, 0.0, 0.0, 0.0)",0,0,0,"(0.0, 0.0, 0.0, 0.0, 0.0, 0.0, 0.0, 0.0, 0.0)",0.325390637,0.090917967,9.785644531,"(0.0, 0.0, 0.0, 0.0, 0.0, 0.0, 0.0, 0.0, 0.0)"
2024/07/10/17:00:31.492047,15333,1700604915,668972885,,0.521850586,-1.900634766,-3.087158203,0,"(0.0, 0.0, 0.0, 0.0, 0.0, 0.0, 0.0, 0.0, 0.0)",0,0,0,"(0.0, 0.0, 0.0, 0.0, 0.0, 0.0, 0.0, 0.0, 0.0)",0.325390637,0.08613281,9.785644531,"(0.0, 0.0, 0.0, 0.0, 0.0, 0.0, 0.0, 0.0, 0.0)"
2024/07/10/17:00:31.591910,15334,1700604915,768639418,,0.521850586,-1.900634766,-3.087158203,0,"(0.0, 0.0, 0.0, 0.0, 0.0, 0.0, 0.0, 0.0, 0.0)",0,0,0,"(0.0, 0.0, 0.0, 0.0, 0.0, 0.0, 0.0, 0.0, 0.0)",0.325390637,0.081347659,9.785644531,"(0.0, 0.0, 0.0, 0.0, 0.0, 0.0, 0.0, 0.0, 0.0)"
2024/07/10/17:00:31.699900,15335,1700604915,868368228,,0.521850586,-1.900634766,-3.087158203,0,"(0.0, 0.0, 0.0, 0.0, 0.0, 0.0, 0.0, 0.0, 0.0)",0,0,0,"(0.0, 0.0, 0.0, 0.0, 0.0, 0.0, 0.0, 0.0, 0.0)",0.325390637,0.081347659,9.795214653,"(0.0, 0.0, 0.0, 0.0, 0.0, 0.0, 0.0, 0.0, 0.0)"
2024/07/10/17:00:31.791044,15336,1700604915,967889503,,0.521850586,-1.900634766,-3.087158203,0,"(0.0, 0.0, 0.0, 0.0, 0.0, 0.0, 0.0, 0.0, 0.0)",0,0,0,"(0.0, 0.0, 0.0, 0.0, 0.0, 0.0, 0.0, 0.0, 0.0)",0.320605457,0.090917967,9.785644531,"(0.0, 0.0, 0.0, 0.0, 0.0, 0.0, 0.0, 0.0, 0.0)"
2024/07/10/17:00:31.903651,15337,1700604916,67520129,,0.521850586,-1.900634766,-3.087158203,0,"(0.0, 0.0, 0.0, 0.0, 0.0, 0.0, 0.0, 0.0, 0.0)",0,0,0,"(0.0, 0.0, 0.0, 0.0, 0.0, 0.0, 0.0, 0.0, 0.0)",0.320605457,0.08613281,9.780858994,"(0.0, 0.0, 0.0, 0.0, 0.0, 0.0, 0.0, 0.0, 0.0)"
2024/07/10/17:00:31.990442,15338,1700604916,167162699,,0.521850586,-1.900634766,-3.087158203,0,"(0.0, 0.0, 0.0, 0.0, 0.0, 0.0, 0.0, 0.0, 0.0)",0,0,0,"(0.0, 0.0, 0.0, 0.0, 0.0, 0.0, 0.0, 0.0, 0.0)",0.320605457,0.08613281,9.790430069,"(0.0, 0.0, 0.0, 0.0, 0.0, 0.0, 0.0, 0.0, 0.0)"
2024/07/10/17:00:32.094689,15339,1700604916,266784399,,0.516357422,-1.90612793,-3.087158203,0,"(0.0, 0.0, 0.0, 0.0, 0.0, 0.0, 0.0, 0.0, 0.0)",0,0,0,"(0.0, 0.0, 0.0, 0.0, 0.0, 0.0, 0.0, 0.0, 0.0)",0.320605457,0.081347659,9.780858994,"(0.0, 0.0, 0.0, 0.0, 0.0, 0.0, 0.0, 0.0, 0.0)"
2024/07/10/17:00:32.190062,15340,1700604916,366533356,,0.516357422,-1.90612793,-3.087158203,0,"(0.0, 0.0, 0.0, 0.0, 0.0, 0.0, 0.0, 0.0, 0.0)",0,0,0,"(0.0, 0.0, 0.0, 0.0, 0.0, 0.0, 0.0, 0.0, 0.0)",0.325390637,0.090917967,9.780858994,"(0.0, 0.0, 0.0, 0.0, 0.0, 0.0, 0.0, 0.0, 0.0)"
2024/07/10/17:00:32.290626,15341,1700604916,466061687,,0.516357422,-1.90612793,-3.087158203,0,"(0.0, 0.0, 0.0, 0.0, 0.0, 0.0, 0.0, 0.0, 0.0)",0,0,0,"(0.0, 0.0, 0.0, 0.0, 0.0, 0.0, 0.0, 0.0, 0.0)",0.325390637,0.090917967,9.785644531,"(0.0, 0.0, 0.0, 0.0, 0.0, 0.0, 0.0, 0.0, 0.0)"
2024/07/10/17:00:32.395945,15342,1700604916,565712683,,0.516357422,-1.90612793,-3.087158203,0,"(0.0, 0.0, 0.0, 0.0, 0.0, 0.0, 0.0, 0.0, 0.0)",0,0,0,"(0.0, 0.0, 0.0, 0.0, 0.0, 0.0, 0.0, 0.0, 0.0)",0.320605457,0.090917967,9.776074409,"(0.0, 0.0, 0.0, 0.0, 0.0, 0.0, 0.0, 0.0, 0.0)"
2024/07/10/17:00:32.497102,15343,1700604916,665475900,,0.516357422,-1.90612793,-3.087158203,0,"(0.0, 0.0, 0.0, 0.0, 0.0, 0.0, 0.0, 0.0, 0.0)",0,0,0,"(0.0, 0.0, 0.0, 0.0, 0.0, 0.0, 0.0, 0.0, 0.0)",0.320605457,0.08613281,9.785644531,"(0.0, 0.0, 0.0, 0.0, 0.0, 0.0, 0.0, 0.0, 0.0)"
2024/07/10/17:00:32.588458,15344,1700604916,764977268,,0.516357422,-1.900634766,-3.087158203,0,"(0.0, 0.0, 0.0, 0.0, 0.0, 0.0, 0.0, 0.0, 0.0)",0,0,0,"(0.0, 0.0, 0.0, 0.0, 0.0, 0.0, 0.0, 0.0, 0.0)",0.315820307,0.08613281,9.790430069,"(0.0, 0.0, 0.0, 0.0, 0.0, 0.0, 0.0, 0.0, 0.0)"
2024/07/10/17:00:32.688013,15345,1700604916,864630060,,0.516357422,-1.900634766,-3.087158203,0,"(0.0, 0.0, 0.0, 0.0, 0.0, 0.0, 0.0, 0.0, 0.0)",0,0,0,"(0.0, 0.0, 0.0, 0.0, 0.0, 0.0, 0.0, 0.0, 0.0)",0.325390637,0.090917967,9.785644531,"(0.0, 0.0, 0.0, 0.0, 0.0, 0.0, 0.0, 0.0, 0.0)"
2024/07/10/17:00:32.787908,15346,1700604916,964250963,,0.516357422,-1.900634766,-3.087158203,0,"(0.0, 0.0, 0.0, 0.0, 0.0, 0.0, 0.0, 0.0, 0.0)",0,0,0,"(0.0, 0.0, 0.0, 0.0, 0.0, 0.0, 0.0, 0.0, 0.0)",0.325390637,0.090917967,9.785644531,"(0.0, 0.0, 0.0, 0.0, 0.0, 0.0, 0.0, 0.0, 0.0)"
2024/07/10/17:00:32.887551,15347,1700604917,63893330,,0.516357422,-1.900634766,-3.087158203,0,"(0.0, 0.0, 0.0, 0.0, 0.0, 0.0, 0.0, 0.0, 0.0)",0,0,0,"(0.0, 0.0, 0.0, 0.0, 0.0, 0.0, 0.0, 0.0, 0.0)",0.330175787,0.076562501,9.785644531,"(0.0, 0.0, 0.0, 0.0, 0.0, 0.0, 0.0, 0.0, 0.0)"
2024/07/10/17:00:32.988425,15348,1700604917,163602640,,0.516357422,-1.90612793,-3.087158203,0,"(0.0, 0.0, 0.0, 0.0, 0.0, 0.0, 0.0, 0.0, 0.0)",0,0,0,"(0.0, 0.0, 0.0, 0.0, 0.0, 0.0, 0.0, 0.0, 0.0)",0.330175787,0.090917967,9.785644531,"(0.0, 0.0, 0.0, 0.0, 0.0, 0.0, 0.0, 0.0, 0.0)"
2024/07/10/17:00:33.089699,15349,1700604917,263156785,,0.516357422,-1.90612793,-3.087158203,0,"(0.0, 0.0, 0.0, 0.0, 0.0, 0.0, 0.0, 0.0, 0.0)",0,0,0,"(0.0, 0.0, 0.0, 0.0, 0.0, 0.0, 0.0, 0.0, 0.0)",0.315820307,0.090917967,9.780858994,"(0.0, 0.0, 0.0, 0.0, 0.0, 0.0, 0.0, 0.0, 0.0)"
2024/07/10/17:00:33.188280,15350,1700604917,362822781,,0.516357422,-1.90612793,-3.087158203,0,"(0.0, 0.0, 0.0, 0.0, 0.0, 0.0, 0.0, 0.0, 0.0)",0,0,0,"(0.0, 0.0, 0.0, 0.0, 0.0, 0.0, 0.0, 0.0, 0.0)",0.325390637,0.090917967,9.785644531,"(0.0, 0.0, 0.0, 0.0, 0.0, 0.0, 0.0, 0.0, 0.0)"
2024/07/10/17:00:33.286160,15351,1700604917,462588738,,0.516357422,-1.90612793,-3.087158203,0,"(0.0, 0.0, 0.0, 0.0, 0.0, 0.0, 0.0, 0.0, 0.0)",0,0,0,"(0.0, 0.0, 0.0, 0.0, 0.0, 0.0, 0.0, 0.0, 0.0)",0.325390637,0.08613281,9.790430069,"(0.0, 0.0, 0.0, 0.0, 0.0, 0.0, 0.0, 0.0, 0.0)"
2024/07/10/17:00:33.397361,15352,1700604917,562092439,,0.516357422,-1.90612793,-3.087158203,0,"(0.0, 0.0, 0.0, 0.0, 0.0, 0.0, 0.0, 0.0, 0.0)",0,0,0,"(0.0, 0.0, 0.0, 0.0, 0.0, 0.0, 0.0, 0.0, 0.0)",0.320605457,0.08613281,9.771288872,"(0.0, 0.0, 0.0, 0.0, 0.0, 0.0, 0.0, 0.0, 0.0)"
2024/07/10/17:00:33.486547,15353,1700604917,661805046,,0.516357422,-1.90612793,-3.087158203,0,"(0.0, 0.0, 0.0, 0.0, 0.0, 0.0, 0.0, 0.0, 0.0)",0,0,0,"(0.0, 0.0, 0.0, 0.0, 0.0, 0.0, 0.0, 0.0, 0.0)",0.325390637,0.090917967,9.780858994,"(0.0, 0.0, 0.0, 0.0, 0.0, 0.0, 0.0, 0.0, 0.0)"
2024/07/10/17:00:33.592231,15354,1700604917,761377376,,0.516357422,-1.90612793,-3.087158203,0,"(0.0, 0.0, 0.0, 0.0, 0.0, 0.0, 0.0, 0.0, 0.0)",0,0,0,"(0.0, 0.0, 0.0, 0.0, 0.0, 0.0, 0.0, 0.0, 0.0)",0.320605457,0.08613281,9.790430069,"(0.0, 0.0, 0.0, 0.0, 0.0, 0.0, 0.0, 0.0, 0.0)"
2024/07/10/17:00:33.686666,15355,1700604917,861036927,,0.516357422,-1.90612793,-3.087158203,0,"(0.0, 0.0, 0.0, 0.0, 0.0, 0.0, 0.0, 0.0, 0.0)",0,0,0,"(0.0, 0.0, 0.0, 0.0, 0.0, 0.0, 0.0, 0.0, 0.0)",0.325390637,0.081347659,9.785644531,"(0.0, 0.0, 0.0, 0.0, 0.0, 0.0, 0.0, 0.0, 0.0)"
2024/07/10/17:00:33.788224,15356,1700604917,960710275,,0.516357422,-1.90612793,-3.087158203,0,"(0.0, 0.0, 0.0, 0.0, 0.0, 0.0, 0.0, 0.0, 0.0)",0,0,0,"(0.0, 0.0, 0.0, 0.0, 0.0, 0.0, 0.0, 0.0, 0.0)",0.325390637,0.081347659,9.780858994,"(0.0, 0.0, 0.0, 0.0, 0.0, 0.0, 0.0, 0.0, 0.0)"
2024/07/10/17:00:33.883521,15357,1700604918,60301642,,0.516357422,-1.90612793,-3.087158203,0,"(0.0, 0.0, 0.0, 0.0, 0.0, 0.0, 0.0, 0.0, 0.0)",0,0,0,"(0.0, 0.0, 0.0, 0.0, 0.0, 0.0, 0.0, 0.0, 0.0)",0.325390637,0.095703125,9.785644531,"(0.0, 0.0, 0.0, 0.0, 0.0, 0.0, 0.0, 0.0, 0.0)"
2024/07/10/17:00:33.983202,15358,1700604918,159950508,,0.516357422,-1.90612793,-3.087158203,0,"(0.0, 0.0, 0.0, 0.0, 0.0, 0.0, 0.0, 0.0, 0.0)",0,0,0,"(0.0, 0.0, 0.0, 0.0, 0.0, 0.0, 0.0, 0.0, 0.0)",0.325390637,0.08613281,9.785644531,"(0.0, 0.0, 0.0, 0.0, 0.0, 0.0, 0.0, 0.0, 0.0)"
2024/07/10/17:00:34.083821,15359,1700604918,259703355,,0.516357422,-1.90612793,-3.087158203,0,"(0.0, 0.0, 0.0, 0.0, 0.0, 0.0, 0.0, 0.0, 0.0)",0,0,0,"(0.0, 0.0, 0.0, 0.0, 0.0, 0.0, 0.0, 0.0, 0.0)",0.325390637,0.081347659,9.766504288,"(0.0, 0.0, 0.0, 0.0, 0.0, 0.0, 0.0, 0.0, 0.0)"
2024/07/10/17:00:34.183750,15360,1700604918,359258148,,0.516357422,-1.90612793,-3.087158203,0,"(0.0, 0.0, 0.0, 0.0, 0.0, 0.0, 0.0, 0.0, 0.0)",0,0,0,"(0.0, 0.0, 0.0, 0.0, 0.0, 0.0, 0.0, 0.0, 0.0)",0.325390637,0.08613281,9.785644531,"(0.0, 0.0, 0.0, 0.0, 0.0, 0.0, 0.0, 0.0, 0.0)"
2024/07/10/17:00:34.285247,15361,1700604918,458873200,,0.516357422,-1.90612793,-3.087158203,0,"(0.0, 0.0, 0.0, 0.0, 0.0, 0.0, 0.0, 0.0, 0.0)",0,0,0,"(0.0, 0.0, 0.0, 0.0, 0.0, 0.0, 0.0, 0.0, 0.0)",0.315820307,0.08613281,9.790430069,"(0.0, 0.0, 0.0, 0.0, 0.0, 0.0, 0.0, 0.0, 0.0)"
2024/07/10/17:00:34.383974,15362,1700604918,558501085,,0.516357422,-1.90612793,-3.087158203,0,"(0.0, 0.0, 0.0, 0.0, 0.0, 0.0, 0.0, 0.0, 0.0)",0,0,0,"(0.0, 0.0, 0.0, 0.0, 0.0, 0.0, 0.0, 0.0, 0.0)",0.325390637,0.08613281,9.785644531,"(0.0, 0.0, 0.0, 0.0, 0.0, 0.0, 0.0, 0.0, 0.0)"
2024/07/10/17:00:34.481948,15363,1700604918,658177340,,0.516357422,-1.90612793,-3.087158203,0,"(0.0, 0.0, 0.0, 0.0, 0.0, 0.0, 0.0, 0.0, 0.0)",0,0,0,"(0.0, 0.0, 0.0, 0.0, 0.0, 0.0, 0.0, 0.0, 0.0)",0.325390637,0.071777344,9.780858994,"(0.0, 0.0, 0.0, 0.0, 0.0, 0.0, 0.0, 0.0, 0.0)"
2024/07/10/17:00:34.580963,15364,1700604918,757849631,,0.516357422,-1.90612793,-3.087158203,0,"(0.0, 0.0, 0.0, 0.0, 0.0, 0.0, 0.0, 0.0, 0.0)",0,0,0,"(0.0, 0.0, 0.0, 0.0, 0.0, 0.0, 0.0, 0.0, 0.0)",0.320605457,0.08613281,9.785644531,"(0.0, 0.0, 0.0, 0.0, 0.0, 0.0, 0.0, 0.0, 0.0)"
2024/07/10/17:00:34.680800,15365,1700604918,857447091,,0.516357422,-1.90612793,-3.087158203,0,"(0.0, 0.0, 0.0, 0.0, 0.0, 0.0, 0.0, 0.0, 0.0)",0,0,0,"(0.0, 0.0, 0.0, 0.0, 0.0, 0.0, 0.0, 0.0, 0.0)",0.320605457,0.08613281,9.780858994,"(0.0, 0.0, 0.0, 0.0, 0.0, 0.0, 0.0, 0.0, 0.0)"
2024/07/10/17:00:34.780666,15366,1700604918,957103161,,0.516357422,-1.90612793,-3.087158203,0,"(0.0, 0.0, 0.0, 0.0, 0.0, 0.0, 0.0, 0.0, 0.0)",0,0,0,"(0.0, 0.0, 0.0, 0.0, 0.0, 0.0, 0.0, 0.0, 0.0)",0.330175787,0.08613281,9.785644531,"(0.0, 0.0, 0.0, 0.0, 0.0, 0.0, 0.0, 0.0, 0.0)"
2024/07/10/17:00:34.881199,15367,1700604919,56852896,,0.516357422,-1.90612793,-3.087158203,0,"(0.0, 0.0, 0.0, 0.0, 0.0, 0.0, 0.0, 0.0, 0.0)",0,0,0,"(0.0, 0.0, 0.0, 0.0, 0.0, 0.0, 0.0, 0.0, 0.0)",0.325390637,0.08613281,9.780858994,"(0.0, 0.0, 0.0, 0.0, 0.0, 0.0, 0.0, 0.0, 0.0)"
2024/07/10/17:00:34.981691,15368,1700604919,156396079,,0.516357422,-1.90612793,-3.087158203,0,"(0.0, 0.0, 0.0, 0.0, 0.0, 0.0, 0.0, 0.0, 0.0)",0,0,0,"(0.0, 0.0, 0.0, 0.0, 0.0, 0.0, 0.0, 0.0, 0.0)",0.330175787,0.08613281,9.776074409,"(0.0, 0.0, 0.0, 0.0, 0.0, 0.0, 0.0, 0.0, 0.0)"
2024/07/10/17:00:35.079334,15369,1700604919,256079685,,0.516357422,-1.90612793,-3.087158203,0,"(0.0, 0.0, 0.0, 0.0, 0.0, 0.0, 0.0, 0.0, 0.0)",0,0,0,"(0.0, 0.0, 0.0, 0.0, 0.0, 0.0, 0.0, 0.0, 0.0)",0.320605457,0.08613281,9.780858994,"(0.0, 0.0, 0.0, 0.0, 0.0, 0.0, 0.0, 0.0, 0.0)"
2024/07/10/17:00:35.179530,15370,1700604919,355849365,,0.516357422,-1.90612793,-3.087158203,0,"(0.0, 0.0, 0.0, 0.0, 0.0, 0.0, 0.0, 0.0, 0.0)",0,0,0,"(0.0, 0.0, 0.0, 0.0, 0.0, 0.0, 0.0, 0.0, 0.0)",0.320605457,0.081347659,9.771288872,"(0.0, 0.0, 0.0, 0.0, 0.0, 0.0, 0.0, 0.0, 0.0)"
2024/07/10/17:00:35.282750,15371,1700604919,455361862,,0.516357422,-1.90612793,-3.087158203,0,"(0.0, 0.0, 0.0, 0.0, 0.0, 0.0, 0.0, 0.0, 0.0)",0,0,0,"(0.0, 0.0, 0.0, 0.0, 0.0, 0.0, 0.0, 0.0, 0.0)",0.320605457,0.08613281,9.780858994,"(0.0, 0.0, 0.0, 0.0, 0.0, 0.0, 0.0, 0.0, 0.0)"
2024/07/10/17:00:35.381984,15372,1700604919,555006562,,0.516357422,-1.90612793,-3.087158203,0,"(0.0, 0.0, 0.0, 0.0, 0.0, 0.0, 0.0, 0.0, 0.0)",0,0,0,"(0.0, 0.0, 0.0, 0.0, 0.0, 0.0, 0.0, 0.0, 0.0)",0.325390637,0.081347659,9.776074409,"(0.0, 0.0, 0.0, 0.0, 0.0, 0.0, 0.0, 0.0, 0.0)"
2024/07/10/17:00:35.479794,15373,1700604919,654620095,,0.516357422,-1.90612793,-3.087158203,0,"(0.0, 0.0, 0.0, 0.0, 0.0, 0.0, 0.0, 0.0, 0.0)",0,0,0,"(0.0, 0.0, 0.0, 0.0, 0.0, 0.0, 0.0, 0.0, 0.0)",0.320605457,0.095703125,9.780858994,"(0.0, 0.0, 0.0, 0.0, 0.0, 0.0, 0.0, 0.0, 0.0)"
2024/07/10/17:00:35.577624,15374,1700604919,754254980,,0.516357422,-1.90612793,-3.087158203,0,"(0.0, 0.0, 0.0, 0.0, 0.0, 0.0, 0.0, 0.0, 0.0)",0,0,0,"(0.0, 0.0, 0.0, 0.0, 0.0, 0.0, 0.0, 0.0, 0.0)",0.325390637,0.090917967,9.785644531,"(0.0, 0.0, 0.0, 0.0, 0.0, 0.0, 0.0, 0.0, 0.0)"
2024/07/10/17:00:35.677308,15375,1700604919,853968735,,0.516357422,-1.90612793,-3.087158203,0,"(0.0, 0.0, 0.0, 0.0, 0.0, 0.0, 0.0, 0.0, 0.0)",0,0,0,"(0.0, 0.0, 0.0, 0.0, 0.0, 0.0, 0.0, 0.0, 0.0)",0.320605457,0.081347659,9.776074409,"(0.0, 0.0, 0.0, 0.0, 0.0, 0.0, 0.0, 0.0, 0.0)"
2024/07/10/17:00:35.776590,15376,1700604919,953521324,,0.516357422,-1.90612793,-3.087158203,0,"(0.0, 0.0, 0.0, 0.0, 0.0, 0.0, 0.0, 0.0, 0.0)",0,0,0,"(0.0, 0.0, 0.0, 0.0, 0.0, 0.0, 0.0, 0.0, 0.0)",0.320605457,0.090917967,9.780858994,"(0.0, 0.0, 0.0, 0.0, 0.0, 0.0, 0.0, 0.0, 0.0)"
2024/07/10/17:00:35.876515,15377,1700604920,53182561,,0.516357422,-1.90612793,-3.087158203,0,"(0.0, 0.0, 0.0, 0.0, 0.0, 0.0, 0.0, 0.0, 0.0)",0,0,0,"(0.0, 0.0, 0.0, 0.0, 0.0, 0.0, 0.0, 0.0, 0.0)",0.320605457,0.095703125,9.780858994,"(0.0, 0.0, 0.0, 0.0, 0.0, 0.0, 0.0, 0.0, 0.0)"
2024/07/10/17:00:35.976285,15378,1700604920,152960352,,0.516357422,-1.90612793,-3.087158203,0,"(0.0, 0.0, 0.0, 0.0, 0.0, 0.0, 0.0, 0.0, 0.0)",0,0,0,"(0.0, 0.0, 0.0, 0.0, 0.0, 0.0, 0.0, 0.0, 0.0)",0.330175787,0.090917967,9.785644531,"(0.0, 0.0, 0.0, 0.0, 0.0, 0.0, 0.0, 0.0, 0.0)"
2024/07/10/17:00:36.075799,15379,1700604920,252447220,,0.516357422,-1.90612793,-3.087158203,0,"(0.0, 0.0, 0.0, 0.0, 0.0, 0.0, 0.0, 0.0, 0.0)",0,0,0,"(0.0, 0.0, 0.0, 0.0, 0.0, 0.0, 0.0, 0.0, 0.0)",0.325390637,0.090917967,9.780858994,"(0.0, 0.0, 0.0, 0.0, 0.0, 0.0, 0.0, 0.0, 0.0)"
2024/07/10/17:00:36.175539,15380,1700604920,352076290,,0.516357422,-1.90612793,-3.087158203,0,"(0.0, 0.0, 0.0, 0.0, 0.0, 0.0, 0.0, 0.0, 0.0)",0,0,0,"(0.0, 0.0, 0.0, 0.0, 0.0, 0.0, 0.0, 0.0, 0.0)",0.325390637,0.081347659,9.790430069,"(0.0, 0.0, 0.0, 0.0, 0.0, 0.0, 0.0, 0.0, 0.0)"
2024/07/10/17:00:36.276350,15381,1700604920,451719916,,0.516357422,-1.90612793,-3.087158203,0,"(0.0, 0.0, 0.0, 0.0, 0.0, 0.0, 0.0, 0.0, 0.0)",0,0,0,"(0.0, 0.0, 0.0, 0.0, 0.0, 0.0, 0.0, 0.0, 0.0)",0.330175787,0.081347659,9.785644531,"(0.0, 0.0, 0.0, 0.0, 0.0, 0.0, 0.0, 0.0, 0.0)"
2024/07/10/17:00:36.375149,15382,1700604920,551364689,,0.516357422,-1.90612793,-3.087158203,0,"(0.0, 0.0, 0.0, 0.0, 0.0, 0.0, 0.0, 0.0, 0.0)",0,0,0,"(0.0, 0.0, 0.0, 0.0, 0.0, 0.0, 0.0, 0.0, 0.0)",0.325390637,0.081347659,9.785644531,"(0.0, 0.0, 0.0, 0.0, 0.0, 0.0, 0.0, 0.0, 0.0)"
2024/07/10/17:00:36.474205,15383,1700604920,651076351,,0.516357422,-1.90612793,-3.087158203,0,"(0.0, 0.0, 0.0, 0.0, 0.0, 0.0, 0.0, 0.0, 0.0)",0,0,0,"(0.0, 0.0, 0.0, 0.0, 0.0, 0.0, 0.0, 0.0, 0.0)",0.320605457,0.081347659,9.780858994,"(0.0, 0.0, 0.0, 0.0, 0.0, 0.0, 0.0, 0.0, 0.0)"
2024/07/10/17:00:36.575477,15384,1700604920,750640033,,0.516357422,-1.90612793,-3.087158203,0,"(0.0, 0.0, 0.0, 0.0, 0.0, 0.0, 0.0, 0.0, 0.0)",0,0,0,"(0.0, 0.0, 0.0, 0.0, 0.0, 0.0, 0.0, 0.0, 0.0)",0.325390637,0.081347659,9.780858994,"(0.0, 0.0, 0.0, 0.0, 0.0, 0.0, 0.0, 0.0, 0.0)"
2024/07/10/17:00:36.674535,15385,1700604920,850310122,,0.516357422,-1.90612793,-3.087158203,0,"(0.0, 0.0, 0.0, 0.0, 0.0, 0.0, 0.0, 0.0, 0.0)",0,0,0,"(0.0, 0.0, 0.0, 0.0, 0.0, 0.0, 0.0, 0.0, 0.0)",0.325390637,0.090917967,9.776074409,"(0.0, 0.0, 0.0, 0.0, 0.0, 0.0, 0.0, 0.0, 0.0)"
2024/07/10/17:00:36.775275,15386,1700604920,950074524,,0.516357422,-1.90612793,-3.087158203,0,"(0.0, 0.0, 0.0, 0.0, 0.0, 0.0, 0.0, 0.0, 0.0)",0,0,0,"(0.0, 0.0, 0.0, 0.0, 0.0, 0.0, 0.0, 0.0, 0.0)",0.325390637,0.08613281,9.790430069,"(0.0, 0.0, 0.0, 0.0, 0.0, 0.0, 0.0, 0.0, 0.0)"
2024/07/10/17:00:36.877969,15387,1700604921,49586910,,0.516357422,-1.90612793,-3.087158203,0,"(0.0, 0.0, 0.0, 0.0, 0.0, 0.0, 0.0, 0.0, 0.0)",0,0,0,"(0.0, 0.0, 0.0, 0.0, 0.0, 0.0, 0.0, 0.0, 0.0)",0.325390637,0.081347659,9.776074409,"(0.0, 0.0, 0.0, 0.0, 0.0, 0.0, 0.0, 0.0, 0.0)"
2024/07/10/17:00:36.972541,15388,1700604921,149267850,,0.516357422,-1.90612793,-3.087158203,0,"(0.0, 0.0, 0.0, 0.0, 0.0, 0.0, 0.0, 0.0, 0.0)",0,0,0,"(0.0, 0.0, 0.0, 0.0, 0.0, 0.0, 0.0, 0.0, 0.0)",0.325390637,0.090917967,9.776074409,"(0.0, 0.0, 0.0, 0.0, 0.0, 0.0, 0.0, 0.0, 0.0)"
2024/07/10/17:00:37.072676,15389,1700604921,248888902,,0.516357422,-1.90612793,-3.087158203,0,"(0.0, 0.0, 0.0, 0.0, 0.0, 0.0, 0.0, 0.0, 0.0)",0,0,0,"(0.0, 0.0, 0.0, 0.0, 0.0, 0.0, 0.0, 0.0, 0.0)",0.320605457,0.090917967,9.785644531,"(0.0, 0.0, 0.0, 0.0, 0.0, 0.0, 0.0, 0.0, 0.0)"
2024/07/10/17:00:37.175465,15390,1700604921,348519565,,0.516357422,-1.90612793,-3.087158203,0,"(0.0, 0.0, 0.0, 0.0, 0.0, 0.0, 0.0, 0.0, 0.0)",0,0,0,"(0.0, 0.0, 0.0, 0.0, 0.0, 0.0, 0.0, 0.0, 0.0)",0.320605457,0.08613281,9.780858994,"(0.0, 0.0, 0.0, 0.0, 0.0, 0.0, 0.0, 0.0, 0.0)"
2024/07/10/17:00:37.276092,15391,1700604921,448231597,,0.516357422,-1.90612793,-3.087158203,0,"(0.0, 0.0, 0.0, 0.0, 0.0, 0.0, 0.0, 0.0, 0.0)",0,0,0,"(0.0, 0.0, 0.0, 0.0, 0.0, 0.0, 0.0, 0.0, 0.0)",0.320605457,0.090917967,9.785644531,"(0.0, 0.0, 0.0, 0.0, 0.0, 0.0, 0.0, 0.0, 0.0)"
2024/07/10/17:00:37.372109,15392,1700604921,547808501,,0.516357422,-1.90612793,-3.087158203,0,"(0.0, 0.0, 0.0, 0.0, 0.0, 0.0, 0.0, 0.0, 0.0)",0,0,0,"(0.0, 0.0, 0.0, 0.0, 0.0, 0.0, 0.0, 0.0, 0.0)",0.325390637,0.090917967,9.780858994,"(0.0, 0.0, 0.0, 0.0, 0.0, 0.0, 0.0, 0.0, 0.0)"
2024/07/10/17:00:37.477900,15393,1700604921,647489404,,0.516357422,-1.90612793,-3.087158203,0,"(0.0, 0.0, 0.0, 0.0, 0.0, 0.0, 0.0, 0.0, 0.0)",0,0,0,"(0.0, 0.0, 0.0, 0.0, 0.0, 0.0, 0.0, 0.0, 0.0)",0.320605457,0.08613281,9.776074409,"(0.0, 0.0, 0.0, 0.0, 0.0, 0.0, 0.0, 0.0, 0.0)"
2024/07/10/17:00:37.573232,15394,1700604921,747218529,,0.516357422,-1.90612793,-3.087158203,0,"(0.0, 0.0, 0.0, 0.0, 0.0, 0.0, 0.0, 0.0, 0.0)",0,0,0,"(0.0, 0.0, 0.0, 0.0, 0.0, 0.0, 0.0, 0.0, 0.0)",0.325390637,0.08613281,9.776074409,"(0.0, 0.0, 0.0, 0.0, 0.0, 0.0, 0.0, 0.0, 0.0)"
2024/07/10/17:00:37.670225,15395,1700604921,846749155,,0.516357422,-1.90612793,-3.087158203,0,"(0.0, 0.0, 0.0, 0.0, 0.0, 0.0, 0.0, 0.0, 0.0)",0,0,0,"(0.0, 0.0, 0.0, 0.0, 0.0, 0.0, 0.0, 0.0, 0.0)",0.325390637,0.090917967,9.785644531,"(0.0, 0.0, 0.0, 0.0, 0.0, 0.0, 0.0, 0.0, 0.0)"
2024/07/10/17:00:37.771022,15396,1700604921,946390485,,0.516357422,-1.90612793,-3.087158203,0,"(0.0, 0.0, 0.0, 0.0, 0.0, 0.0, 0.0, 0.0, 0.0)",0,0,0,"(0.0, 0.0, 0.0, 0.0, 0.0, 0.0, 0.0, 0.0, 0.0)",0.320605457,0.081347659,9.790430069,"(0.0, 0.0, 0.0, 0.0, 0.0, 0.0, 0.0, 0.0, 0.0)"
2024/07/10/17:00:37.869633,15397,1700604922,46219108,,0.516357422,-1.90612793,-3.087158203,0,"(0.0, 0.0, 0.0, 0.0, 0.0, 0.0, 0.0, 0.0, 0.0)",0,0,0,"(0.0, 0.0, 0.0, 0.0, 0.0, 0.0, 0.0, 0.0, 0.0)",0.320605457,0.081347659,9.780858994,"(0.0, 0.0, 0.0, 0.0, 0.0, 0.0, 0.0, 0.0, 0.0)"
2024/07/10/17:00:37.969898,15398,1700604922,145680162,,0.516357422,-1.90612793,-3.087158203,0,"(0.0, 0.0, 0.0, 0.0, 0.0, 0.0, 0.0, 0.0, 0.0)",0,0,0,"(0.0, 0.0, 0.0, 0.0, 0.0, 0.0, 0.0, 0.0, 0.0)",0.325390637,0.090917967,9.785644531,"(0.0, 0.0, 0.0, 0.0, 0.0, 0.0, 0.0, 0.0, 0.0)"
2024/07/10/17:00:38.069359,15399,1700604922,245332250,,0.516357422,-1.90612793,-3.087158203,0,"(0.0, 0.0, 0.0, 0.0, 0.0, 0.0, 0.0, 0.0, 0.0)",0,0,0,"(0.0, 0.0, 0.0, 0.0, 0.0, 0.0, 0.0, 0.0, 0.0)",0.325390637,0.081347659,9.780858994,"(0.0, 0.0, 0.0, 0.0, 0.0, 0.0, 0.0, 0.0, 0.0)"
2024/07/10/17:00:38.168311,15400,1700604922,344966524,,0.516357422,-1.90612793,-3.087158203,0,"(0.0, 0.0, 0.0, 0.0, 0.0, 0.0, 0.0, 0.0, 0.0)",0,0,0,"(0.0, 0.0, 0.0, 0.0, 0.0, 0.0, 0.0, 0.0, 0.0)",0.325390637,0.081347659,9.785644531,"(0.0, 0.0, 0.0, 0.0, 0.0, 0.0, 0.0, 0.0, 0.0)"
2024/07/10/17:00:38.268729,15401,1700604922,444624298,,0.516357422,-1.90612793,-3.087158203,0,"(0.0, 0.0, 0.0, 0.0, 0.0, 0.0, 0.0, 0.0, 0.0)",0,0,0,"(0.0, 0.0, 0.0, 0.0, 0.0, 0.0, 0.0, 0.0, 0.0)",0.315820307,0.081347659,9.785644531,"(0.0, 0.0, 0.0, 0.0, 0.0, 0.0, 0.0, 0.0, 0.0)"
2024/07/10/17:00:38.369836,15402,1700604922,544337645,,0.516357422,-1.90612793,-3.087158203,0,"(0.0, 0.0, 0.0, 0.0, 0.0, 0.0, 0.0, 0.0, 0.0)",0,0,0,"(0.0, 0.0, 0.0, 0.0, 0.0, 0.0, 0.0, 0.0, 0.0)",0.320605457,0.08613281,9.785644531,"(0.0, 0.0, 0.0, 0.0, 0.0, 0.0, 0.0, 0.0, 0.0)"
2024/07/10/17:00:38.468018,15403,1700604922,643891086,,0.516357422,-1.90612793,-3.087158203,0,"(0.0, 0.0, 0.0, 0.0, 0.0, 0.0, 0.0, 0.0, 0.0)",0,0,0,"(0.0, 0.0, 0.0, 0.0, 0.0, 0.0, 0.0, 0.0, 0.0)",0.330175787,0.081347659,9.780858994,"(0.0, 0.0, 0.0, 0.0, 0.0, 0.0, 0.0, 0.0, 0.0)"
2024/07/10/17:00:38.567063,15404,1700604922,743581063,,0.516357422,-1.90612793,-3.087158203,0,"(0.0, 0.0, 0.0, 0.0, 0.0, 0.0, 0.0, 0.0, 0.0)",0,0,0,"(0.0, 0.0, 0.0, 0.0, 0.0, 0.0, 0.0, 0.0, 0.0)",0.320605457,0.090917967,9.776074409,"(0.0, 0.0, 0.0, 0.0, 0.0, 0.0, 0.0, 0.0, 0.0)"
2024/07/10/17:00:38.669498,15405,1700604922,843328077,,0.516357422,-1.90612793,-3.087158203,0,"(0.0, 0.0, 0.0, 0.0, 0.0, 0.0, 0.0, 0.0, 0.0)",0,0,0,"(0.0, 0.0, 0.0, 0.0, 0.0, 0.0, 0.0, 0.0, 0.0)",0.320605457,0.08613281,9.780858994,"(0.0, 0.0, 0.0, 0.0, 0.0, 0.0, 0.0, 0.0, 0.0)"
2024/07/10/17:00:38.766812,15406,1700604922,942840648,,0.516357422,-1.90612793,-3.087158203,0,"(0.0, 0.0, 0.0, 0.0, 0.0, 0.0, 0.0, 0.0, 0.0)",0,0,0,"(0.0, 0.0, 0.0, 0.0, 0.0, 0.0, 0.0, 0.0, 0.0)",0.315820307,0.08613281,9.776074409,"(0.0, 0.0, 0.0, 0.0, 0.0, 0.0, 0.0, 0.0, 0.0)"
2024/07/10/17:00:38.866082,15407,1700604923,42490329,,0.516357422,-1.90612793,-3.087158203,0,"(0.0, 0.0, 0.0, 0.0, 0.0, 0.0, 0.0, 0.0, 0.0)",0,0,0,"(0.0, 0.0, 0.0, 0.0, 0.0, 0.0, 0.0, 0.0, 0.0)",0.325390637,0.090917967,9.776074409,"(0.0, 0.0, 0.0, 0.0, 0.0, 0.0, 0.0, 0.0, 0.0)"
2024/07/10/17:00:38.966530,15408,1700604923,142118992,,0.516357422,-1.90612793,-3.087158203,0,"(0.0, 0.0, 0.0, 0.0, 0.0, 0.0, 0.0, 0.0, 0.0)",0,0,0,"(0.0, 0.0, 0.0, 0.0, 0.0, 0.0, 0.0, 0.0, 0.0)",0.325390637,0.090917967,9.785644531,"(0.0, 0.0, 0.0, 0.0, 0.0, 0.0, 0.0, 0.0, 0.0)"
2024/07/10/17:00:39.064398,15409,1700604923,241766006,,0.516357422,-1.90612793,-3.087158203,0,"(0.0, 0.0, 0.0, 0.0, 0.0, 0.0, 0.0, 0.0, 0.0)",0,0,0,"(0.0, 0.0, 0.0, 0.0, 0.0, 0.0, 0.0, 0.0, 0.0)",0.320605457,0.08613281,9.785644531,"(0.0, 0.0, 0.0, 0.0, 0.0, 0.0, 0.0, 0.0, 0.0)"
2024/07/10/17:00:39.165751,15410,1700604923,341455817,,0.516357422,-1.90612793,-3.087158203,0,"(0.0, 0.0, 0.0, 0.0, 0.0, 0.0, 0.0, 0.0, 0.0)",0,0,0,"(0.0, 0.0, 0.0, 0.0, 0.0, 0.0, 0.0, 0.0, 0.0)",0.330175787,0.08613281,9.785644531,"(0.0, 0.0, 0.0, 0.0, 0.0, 0.0, 0.0, 0.0, 0.0)"
2024/07/10/17:00:39.264850,15411,1700604923,441053202,,0.516357422,-1.90612793,-3.087158203,0,"(0.0, 0.0, 0.0, 0.0, 0.0, 0.0, 0.0, 0.0, 0.0)",0,0,0,"(0.0, 0.0, 0.0, 0.0, 0.0, 0.0, 0.0, 0.0, 0.0)",0.325390637,0.081347659,9.780858994,"(0.0, 0.0, 0.0, 0.0, 0.0, 0.0, 0.0, 0.0, 0.0)"
2024/07/10/17:00:39.364399,15412,1700604923,540689754,,0.516357422,-1.90612793,-3.087158203,0,"(0.0, 0.0, 0.0, 0.0, 0.0, 0.0, 0.0, 0.0, 0.0)",0,0,0,"(0.0, 0.0, 0.0, 0.0, 0.0, 0.0, 0.0, 0.0, 0.0)",0.325390637,0.08613281,9.780858994,"(0.0, 0.0, 0.0, 0.0, 0.0, 0.0, 0.0, 0.0, 0.0)"
2024/07/10/17:00:39.465173,15413,1700604923,640481822,,0.516357422,-1.90612793,-3.087158203,0,"(0.0, 0.0, 0.0, 0.0, 0.0, 0.0, 0.0, 0.0, 0.0)",0,0,0,"(0.0, 0.0, 0.0, 0.0, 0.0, 0.0, 0.0, 0.0, 0.0)",0.330175787,0.08613281,9.780858994,"(0.0, 0.0, 0.0, 0.0, 0.0, 0.0, 0.0, 0.0, 0.0)"
2024/07/10/17:00:39.564235,15414,1700604923,739983375,,0.516357422,-1.90612793,-3.087158203,0,"(0.0, 0.0, 0.0, 0.0, 0.0, 0.0, 0.0, 0.0, 0.0)",0,0,0,"(0.0, 0.0, 0.0, 0.0, 0.0, 0.0, 0.0, 0.0, 0.0)",0.325390637,0.076562501,9.785644531,"(0.0, 0.0, 0.0, 0.0, 0.0, 0.0, 0.0, 0.0, 0.0)"
2024/07/10/17:00:39.665831,15415,1700604923,839622167,,0.516357422,-1.90612793,-3.087158203,0,"(0.0, 0.0, 0.0, 0.0, 0.0, 0.0, 0.0, 0.0, 0.0)",0,0,0,"(0.0, 0.0, 0.0, 0.0, 0.0, 0.0, 0.0, 0.0, 0.0)",0.325390637,0.08613281,9.785644531,"(0.0, 0.0, 0.0, 0.0, 0.0, 0.0, 0.0, 0.0, 0.0)"
2024/07/10/17:00:39.762511,15416,1700604923,939245016,,0.516357422,-1.90612793,-3.087158203,0,"(0.0, 0.0, 0.0, 0.0, 0.0, 0.0, 0.0, 0.0, 0.0)",0,0,0,"(0.0, 0.0, 0.0, 0.0, 0.0, 0.0, 0.0, 0.0, 0.0)",0.320605457,0.08613281,9.785644531,"(0.0, 0.0, 0.0, 0.0, 0.0, 0.0, 0.0, 0.0, 0.0)"
2024/07/10/17:00:39.866171,15417,1700604924,38901363,,0.516357422,-1.90612793,-3.087158203,0,"(0.0, 0.0, 0.0, 0.0, 0.0, 0.0, 0.0, 0.0, 0.0)",0,0,0,"(0.0, 0.0, 0.0, 0.0, 0.0, 0.0, 0.0, 0.0, 0.0)",0.325390637,0.090917967,9.780858994,"(0.0, 0.0, 0.0, 0.0, 0.0, 0.0, 0.0, 0.0, 0.0)"
2024/07/10/17:00:39.963814,15418,1700604924,138602710,,0.516357422,-1.90612793,-3.087158203,0,"(0.0, 0.0, 0.0, 0.0, 0.0, 0.0, 0.0, 0.0, 0.0)",0,0,0,"(0.0, 0.0, 0.0, 0.0, 0.0, 0.0, 0.0, 0.0, 0.0)",0.320605457,0.090917967,9.785644531,"(0.0, 0.0, 0.0, 0.0, 0.0, 0.0, 0.0, 0.0, 0.0)"
2024/07/10/17:00:40.066055,15419,1700604924,238179411,,0.516357422,-1.90612793,-3.087158203,0,"(0.0, 0.0, 0.0, 0.0, 0.0, 0.0, 0.0, 0.0, 0.0)",0,0,0,"(0.0, 0.0, 0.0, 0.0, 0.0, 0.0, 0.0, 0.0, 0.0)",0.330175787,0.090917967,9.776074409,"(0.0, 0.0, 0.0, 0.0, 0.0, 0.0, 0.0, 0.0, 0.0)"
2024/07/10/17:00:40.160851,15420,1700604924,337852314,,0.516357422,-1.90612793,-3.087158203,0,"(0.0, 0.0, 0.0, 0.0, 0.0, 0.0, 0.0, 0.0, 0.0)",0,0,0,"(0.0, 0.0, 0.0, 0.0, 0.0, 0.0, 0.0, 0.0, 0.0)",0.325390637,0.08613281,9.785644531,"(0.0, 0.0, 0.0, 0.0, 0.0, 0.0, 0.0, 0.0, 0.0)"
2024/07/10/17:00:40.263289,15421,1700604924,437595142,,0.516357422,-1.90612793,-3.087158203,0,"(0.0, 0.0, 0.0, 0.0, 0.0, 0.0, 0.0, 0.0, 0.0)",0,0,0,"(0.0, 0.0, 0.0, 0.0, 0.0, 0.0, 0.0, 0.0, 0.0)",0.320605457,0.08613281,9.780858994,"(0.0, 0.0, 0.0, 0.0, 0.0, 0.0, 0.0, 0.0, 0.0)"
2024/07/10/17:00:40.360162,15422,1700604924,537140010,,0.516357422,-1.90612793,-3.087158203,0,"(0.0, 0.0, 0.0, 0.0, 0.0, 0.0, 0.0, 0.0, 0.0)",0,0,0,"(0.0, 0.0, 0.0, 0.0, 0.0, 0.0, 0.0, 0.0, 0.0)",0.320605457,0.090917967,9.776074409,"(0.0, 0.0, 0.0, 0.0, 0.0, 0.0, 0.0, 0.0, 0.0)"
2024/07/10/17:00:40.461576,15423,1700604924,636809876,,0.516357422,-1.90612793,-3.087158203,0,"(0.0, 0.0, 0.0, 0.0, 0.0, 0.0, 0.0, 0.0, 0.0)",0,0,0,"(0.0, 0.0, 0.0, 0.0, 0.0, 0.0, 0.0, 0.0, 0.0)",0.330175787,0.090917967,9.780858994,"(0.0, 0.0, 0.0, 0.0, 0.0, 0.0, 0.0, 0.0, 0.0)"
2024/07/10/17:00:40.563417,15424,1700604924,736594759,,0.516357422,-1.90612793,-3.087158203,0,"(0.0, 0.0, 0.0, 0.0, 0.0, 0.0, 0.0, 0.0, 0.0)",0,0,0,"(0.0, 0.0, 0.0, 0.0, 0.0, 0.0, 0.0, 0.0, 0.0)",0.325390637,0.090917967,9.780858994,"(0.0, 0.0, 0.0, 0.0, 0.0, 0.0, 0.0, 0.0, 0.0)"
2024/07/10/17:00:40.659075,15425,1700604924,836067035,,0.516357422,-1.90612793,-3.087158203,0,"(0.0, 0.0, 0.0, 0.0, 0.0, 0.0, 0.0, 0.0, 0.0)",0,0,0,"(0.0, 0.0, 0.0, 0.0, 0.0, 0.0, 0.0, 0.0, 0.0)",0.325390637,0.090917967,9.780858994,"(0.0, 0.0, 0.0, 0.0, 0.0, 0.0, 0.0, 0.0, 0.0)"
2024/07/10/17:00:40.758754,15426,1700604924,935709271,,0.516357422,-1.90612793,-3.087158203,0,"(0.0, 0.0, 0.0, 0.0, 0.0, 0.0, 0.0, 0.0, 0.0)",0,0,0,"(0.0, 0.0, 0.0, 0.0, 0.0, 0.0, 0.0, 0.0, 0.0)",0.325390637,0.090917967,9.780858994,"(0.0, 0.0, 0.0, 0.0, 0.0, 0.0, 0.0, 0.0, 0.0)"
2024/07/10/17:00:40.858223,15427,1700604925,35369508,,0.516357422,-1.90612793,-3.087158203,0,"(0.0, 0.0, 0.0, 0.0, 0.0, 0.0, 0.0, 0.0, 0.0)",0,0,0,"(0.0, 0.0, 0.0, 0.0, 0.0, 0.0, 0.0, 0.0, 0.0)",0.325390637,0.095703125,9.780858994,"(0.0, 0.0, 0.0, 0.0, 0.0, 0.0, 0.0, 0.0, 0.0)"
2024/07/10/17:00:40.960334,15428,1700604925,134982523,,0.516357422,-1.90612793,-3.087158203,0,"(0.0, 0.0, 0.0, 0.0, 0.0, 0.0, 0.0, 0.0, 0.0)",0,0,0,"(0.0, 0.0, 0.0, 0.0, 0.0, 0.0, 0.0, 0.0, 0.0)",0.320605457,0.090917967,9.790430069,"(0.0, 0.0, 0.0, 0.0, 0.0, 0.0, 0.0, 0.0, 0.0)"
2024/07/10/17:00:41.058420,15429,1700604925,234706666,,0.521850586,-1.90612793,-3.087158203,0,"(0.0, 0.0, 0.0, 0.0, 0.0, 0.0, 0.0, 0.0, 0.0)",0,0,0,"(0.0, 0.0, 0.0, 0.0, 0.0, 0.0, 0.0, 0.0, 0.0)",0.320605457,0.08613281,9.785644531,"(0.0, 0.0, 0.0, 0.0, 0.0, 0.0, 0.0, 0.0, 0.0)"
2024/07/10/17:00:41.158942,15430,1700604925,334283533,,0.521850586,-1.90612793,-3.087158203,0,"(0.0, 0.0, 0.0, 0.0, 0.0, 0.0, 0.0, 0.0, 0.0)",0,0,0,"(0.0, 0.0, 0.0, 0.0, 0.0, 0.0, 0.0, 0.0, 0.0)",0.320605457,0.08613281,9.790430069,"(0.0, 0.0, 0.0, 0.0, 0.0, 0.0, 0.0, 0.0, 0.0)"
2024/07/10/17:00:41.264843,15431,1700604925,433935621,,0.516357422,-1.90612793,-3.087158203,0,"(0.0, 0.0, 0.0, 0.0, 0.0, 0.0, 0.0, 0.0, 0.0)",0,0,0,"(0.0, 0.0, 0.0, 0.0, 0.0, 0.0, 0.0, 0.0, 0.0)",0.320605457,0.081347659,9.780858994,"(0.0, 0.0, 0.0, 0.0, 0.0, 0.0, 0.0, 0.0, 0.0)"
2024/07/10/17:00:41.357032,15432,1700604925,533699505,,0.516357422,-1.90612793,-3.087158203,0,"(0.0, 0.0, 0.0, 0.0, 0.0, 0.0, 0.0, 0.0, 0.0)",0,0,0,"(0.0, 0.0, 0.0, 0.0, 0.0, 0.0, 0.0, 0.0, 0.0)",0.325390637,0.08613281,9.785644531,"(0.0, 0.0, 0.0, 0.0, 0.0, 0.0, 0.0, 0.0, 0.0)"
2024/07/10/17:00:41.457955,15433,1700604925,633239595,,0.516357422,-1.90612793,-3.087158203,0,"(0.0, 0.0, 0.0, 0.0, 0.0, 0.0, 0.0, 0.0, 0.0)",0,0,0,"(0.0, 0.0, 0.0, 0.0, 0.0, 0.0, 0.0, 0.0, 0.0)",0.325390637,0.08613281,9.780858994,"(0.0, 0.0, 0.0, 0.0, 0.0, 0.0, 0.0, 0.0, 0.0)"
2024/07/10/17:00:41.555879,15434,1700604925,732896924,,0.516357422,-1.90612793,-3.087158203,0,"(0.0, 0.0, 0.0, 0.0, 0.0, 0.0, 0.0, 0.0, 0.0)",0,0,0,"(0.0, 0.0, 0.0, 0.0, 0.0, 0.0, 0.0, 0.0, 0.0)",0.325390637,0.081347659,9.785644531,"(0.0, 0.0, 0.0, 0.0, 0.0, 0.0, 0.0, 0.0, 0.0)"
2024/07/10/17:00:41.655495,15435,1700604925,832739844,,0.516357422,-1.90612793,-3.087158203,0,"(0.0, 0.0, 0.0, 0.0, 0.0, 0.0, 0.0, 0.0, 0.0)",0,0,0,"(0.0, 0.0, 0.0, 0.0, 0.0, 0.0, 0.0, 0.0, 0.0)",0.325390637,0.090917967,9.785644531,"(0.0, 0.0, 0.0, 0.0, 0.0, 0.0, 0.0, 0.0, 0.0)"
2024/07/10/17:00:41.755339,15436,1700604925,932200416,,0.516357422,-1.90612793,-3.087158203,0,"(0.0, 0.0, 0.0, 0.0, 0.0, 0.0, 0.0, 0.0, 0.0)",0,0,0,"(0.0, 0.0, 0.0, 0.0, 0.0, 0.0, 0.0, 0.0, 0.0)",0.325390637,0.076562501,9.776074409,"(0.0, 0.0, 0.0, 0.0, 0.0, 0.0, 0.0, 0.0, 0.0)"
2024/07/10/17:00:41.856869,15437,1700604926,31848912,,0.516357422,-1.90612793,-3.087158203,0,"(0.0, 0.0, 0.0, 0.0, 0.0, 0.0, 0.0, 0.0, 0.0)",0,0,0,"(0.0, 0.0, 0.0, 0.0, 0.0, 0.0, 0.0, 0.0, 0.0)",0.325390637,0.090917967,9.780858994,"(0.0, 0.0, 0.0, 0.0, 0.0, 0.0, 0.0, 0.0, 0.0)"
2024/07/10/17:00:41.954625,15438,1700604926,131476241,,0.516357422,-1.90612793,-3.087158203,0,"(0.0, 0.0, 0.0, 0.0, 0.0, 0.0, 0.0, 0.0, 0.0)",0,0,0,"(0.0, 0.0, 0.0, 0.0, 0.0, 0.0, 0.0, 0.0, 0.0)",0.320605457,0.08613281,9.780858994,"(0.0, 0.0, 0.0, 0.0, 0.0, 0.0, 0.0, 0.0, 0.0)"
2024/07/10/17:00:42.054871,15439,1700604926,231127570,,0.516357422,-1.90612793,-3.087158203,0,"(0.0, 0.0, 0.0, 0.0, 0.0, 0.0, 0.0, 0.0, 0.0)",0,0,0,"(0.0, 0.0, 0.0, 0.0, 0.0, 0.0, 0.0, 0.0, 0.0)",0.320605457,0.08613281,9.785644531,"(0.0, 0.0, 0.0, 0.0, 0.0, 0.0, 0.0, 0.0, 0.0)"
2024/07/10/17:00:42.153930,15440,1700604926,330848936,,0.516357422,-1.90612793,-3.087158203,0,"(0.0, 0.0, 0.0, 0.0, 0.0, 0.0, 0.0, 0.0, 0.0)",0,0,0,"(0.0, 0.0, 0.0, 0.0, 0.0, 0.0, 0.0, 0.0, 0.0)",0.320605457,0.081347659,9.780858994,"(0.0, 0.0, 0.0, 0.0, 0.0, 0.0, 0.0, 0.0, 0.0)"
2024/07/10/17:00:42.253778,15441,1700604926,430429358,,0.516357422,-1.90612793,-3.087158203,0,"(0.0, 0.0, 0.0, 0.0, 0.0, 0.0, 0.0, 0.0, 0.0)",0,0,0,"(0.0, 0.0, 0.0, 0.0, 0.0, 0.0, 0.0, 0.0, 0.0)",0.325390637,0.08613281,9.785644531,"(0.0, 0.0, 0.0, 0.0, 0.0, 0.0, 0.0, 0.0, 0.0)"
2024/07/10/17:00:42.354032,15442,1700604926,530084743,,0.516357422,-1.90612793,-3.087158203,0,"(0.0, 0.0, 0.0, 0.0, 0.0, 0.0, 0.0, 0.0, 0.0)",0,0,0,"(0.0, 0.0, 0.0, 0.0, 0.0, 0.0, 0.0, 0.0, 0.0)",0.320605457,0.081347659,9.780858994,"(0.0, 0.0, 0.0, 0.0, 0.0, 0.0, 0.0, 0.0, 0.0)"
2024/07/10/17:00:42.454764,15443,1700604926,629859627,,0.516357422,-1.90612793,-3.087158203,0,"(0.0, 0.0, 0.0, 0.0, 0.0, 0.0, 0.0, 0.0, 0.0)",0,0,0,"(0.0, 0.0, 0.0, 0.0, 0.0, 0.0, 0.0, 0.0, 0.0)",0.325390637,0.08613281,9.785644531,"(0.0, 0.0, 0.0, 0.0, 0.0, 0.0, 0.0, 0.0, 0.0)"
2024/07/10/17:00:42.554373,15444,1700604926,729368976,,0.516357422,-1.90612793,-3.087158203,0,"(0.0, 0.0, 0.0, 0.0, 0.0, 0.0, 0.0, 0.0, 0.0)",0,0,0,"(0.0, 0.0, 0.0, 0.0, 0.0, 0.0, 0.0, 0.0, 0.0)",0.330175787,0.08613281,9.776074409,"(0.0, 0.0, 0.0, 0.0, 0.0, 0.0, 0.0, 0.0, 0.0)"
2024/07/10/17:00:42.651707,15445,1700604926,829037212,,0.516357422,-1.90612793,-3.087158203,0,"(0.0, 0.0, 0.0, 0.0, 0.0, 0.0, 0.0, 0.0, 0.0)",0,0,0,"(0.0, 0.0, 0.0, 0.0, 0.0, 0.0, 0.0, 0.0, 0.0)",0.320605457,0.090917967,9.776074409,"(0.0, 0.0, 0.0, 0.0, 0.0, 0.0, 0.0, 0.0, 0.0)"
2024/07/10/17:00:42.751646,15446,1700604926,928665931,,0.516357422,-1.90612793,-3.087158203,0,"(0.0, 0.0, 0.0, 0.0, 0.0, 0.0, 0.0, 0.0, 0.0)",0,0,0,"(0.0, 0.0, 0.0, 0.0, 0.0, 0.0, 0.0, 0.0, 0.0)",0.320605457,0.081347659,9.780858994,"(0.0, 0.0, 0.0, 0.0, 0.0, 0.0, 0.0, 0.0, 0.0)"
2024/07/10/17:00:42.851216,15447,1700604927,28319167,,0.516357422,-1.90612793,-3.087158203,0,"(0.0, 0.0, 0.0, 0.0, 0.0, 0.0, 0.0, 0.0, 0.0)",0,0,0,"(0.0, 0.0, 0.0, 0.0, 0.0, 0.0, 0.0, 0.0, 0.0)",0.325390637,0.08613281,9.776074409,"(0.0, 0.0, 0.0, 0.0, 0.0, 0.0, 0.0, 0.0, 0.0)"
2024/07/10/17:00:42.951233,15448,1700604927,128028255,,0.510864258,-1.90612793,-3.087158203,0,"(0.0, 0.0, 0.0, 0.0, 0.0, 0.0, 0.0, 0.0, 0.0)",0,0,0,"(0.0, 0.0, 0.0, 0.0, 0.0, 0.0, 0.0, 0.0, 0.0)",0.315820307,0.090917967,9.776074409,"(0.0, 0.0, 0.0, 0.0, 0.0, 0.0, 0.0, 0.0, 0.0)"
2024/07/10/17:00:43.051388,15449,1700604927,227608826,,0.516357422,-1.90612793,-3.087158203,0,"(0.0, 0.0, 0.0, 0.0, 0.0, 0.0, 0.0, 0.0, 0.0)",0,0,0,"(0.0, 0.0, 0.0, 0.0, 0.0, 0.0, 0.0, 0.0, 0.0)",0.325390637,0.081347659,9.780858994,"(0.0, 0.0, 0.0, 0.0, 0.0, 0.0, 0.0, 0.0, 0.0)"
2024/07/10/17:00:43.150252,15450,1700604927,327296766,,0.516357422,-1.90612793,-3.087158203,0,"(0.0, 0.0, 0.0, 0.0, 0.0, 0.0, 0.0, 0.0, 0.0)",0,0,0,"(0.0, 0.0, 0.0, 0.0, 0.0, 0.0, 0.0, 0.0, 0.0)",0.330175787,0.081347659,9.780858994,"(0.0, 0.0, 0.0, 0.0, 0.0, 0.0, 0.0, 0.0, 0.0)"
2024/07/10/17:00:43.249765,15451,1700604927,426999761,,0.516357422,-1.90612793,-3.087158203,0,"(0.0, 0.0, 0.0, 0.0, 0.0, 0.0, 0.0, 0.0, 0.0)",0,0,0,"(0.0, 0.0, 0.0, 0.0, 0.0, 0.0, 0.0, 0.0, 0.0)",0.320605457,0.090917967,9.776074409,"(0.0, 0.0, 0.0, 0.0, 0.0, 0.0, 0.0, 0.0, 0.0)"
2024/07/10/17:00:43.349653,15452,1700604927,526597109,,0.516357422,-1.90612793,-3.087158203,0,"(0.0, 0.0, 0.0, 0.0, 0.0, 0.0, 0.0, 0.0, 0.0)",0,0,0,"(0.0, 0.0, 0.0, 0.0, 0.0, 0.0, 0.0, 0.0, 0.0)",0.325390637,0.090917967,9.776074409,"(0.0, 0.0, 0.0, 0.0, 0.0, 0.0, 0.0, 0.0, 0.0)"
2024/07/10/17:00:43.449346,15453,1700604927,626244013,,0.516357422,-1.90612793,-3.087158203,0,"(0.0, 0.0, 0.0, 0.0, 0.0, 0.0, 0.0, 0.0, 0.0)",0,0,0,"(0.0, 0.0, 0.0, 0.0, 0.0, 0.0, 0.0, 0.0, 0.0)",0.315820307,0.08613281,9.780858994,"(0.0, 0.0, 0.0, 0.0, 0.0, 0.0, 0.0, 0.0, 0.0)"
2024/07/10/17:00:43.549040,15454,1700604927,726002489,,0.516357422,-1.90612793,-3.087158203,0,"(0.0, 0.0, 0.0, 0.0, 0.0, 0.0, 0.0, 0.0, 0.0)",0,0,0,"(0.0, 0.0, 0.0, 0.0, 0.0, 0.0, 0.0, 0.0, 0.0)",0.320605457,0.08613281,9.780858994,"(0.0, 0.0, 0.0, 0.0, 0.0, 0.0, 0.0, 0.0, 0.0)"
2024/07/10/17:00:43.648434,15455,1700604927,825525468,,0.516357422,-1.90612793,-3.087158203,0,"(0.0, 0.0, 0.0, 0.0, 0.0, 0.0, 0.0, 0.0, 0.0)",0,0,0,"(0.0, 0.0, 0.0, 0.0, 0.0, 0.0, 0.0, 0.0, 0.0)",0.325390637,0.081347659,9.790430069,"(0.0, 0.0, 0.0, 0.0, 0.0, 0.0, 0.0, 0.0, 0.0)"
2024/07/10/17:00:43.748242,15456,1700604927,925200871,,0.516357422,-1.90612793,-3.087158203,0,"(0.0, 0.0, 0.0, 0.0, 0.0, 0.0, 0.0, 0.0, 0.0)",0,0,0,"(0.0, 0.0, 0.0, 0.0, 0.0, 0.0, 0.0, 0.0, 0.0)",0.325390637,0.08613281,9.790430069,"(0.0, 0.0, 0.0, 0.0, 0.0, 0.0, 0.0, 0.0, 0.0)"
2024/07/10/17:00:43.847997,15457,1700604928,24838311,,0.516357422,-1.90612793,-3.087158203,0,"(0.0, 0.0, 0.0, 0.0, 0.0, 0.0, 0.0, 0.0, 0.0)",0,0,0,"(0.0, 0.0, 0.0, 0.0, 0.0, 0.0, 0.0, 0.0, 0.0)",0.320605457,0.090917967,9.780858994,"(0.0, 0.0, 0.0, 0.0, 0.0, 0.0, 0.0, 0.0, 0.0)"
2024/07/10/17:00:43.947460,15458,1700604928,124494289,,0.516357422,-1.90612793,-3.087158203,0,"(0.0, 0.0, 0.0, 0.0, 0.0, 0.0, 0.0, 0.0, 0.0)",0,0,0,"(0.0, 0.0, 0.0, 0.0, 0.0, 0.0, 0.0, 0.0, 0.0)",0.325390637,0.08613281,9.780858994,"(0.0, 0.0, 0.0, 0.0, 0.0, 0.0, 0.0, 0.0, 0.0)"
2024/07/10/17:00:44.047666,15459,1700604928,224161229,,0.516357422,-1.90612793,-3.087158203,0,"(0.0, 0.0, 0.0, 0.0, 0.0, 0.0, 0.0, 0.0, 0.0)",0,0,0,"(0.0, 0.0, 0.0, 0.0, 0.0, 0.0, 0.0, 0.0, 0.0)",0.325390637,0.090917967,9.780858994,"(0.0, 0.0, 0.0, 0.0, 0.0, 0.0, 0.0, 0.0, 0.0)"
2024/07/10/17:00:44.147076,15460,1700604928,323793947,,0.516357422,-1.90612793,-3.087158203,0,"(0.0, 0.0, 0.0, 0.0, 0.0, 0.0, 0.0, 0.0, 0.0)",0,0,0,"(0.0, 0.0, 0.0, 0.0, 0.0, 0.0, 0.0, 0.0, 0.0)",0.325390637,0.090917967,9.776074409,"(0.0, 0.0, 0.0, 0.0, 0.0, 0.0, 0.0, 0.0, 0.0)"
2024/07/10/17:00:44.249325,15461,1700604928,423442350,,0.516357422,-1.90612793,-3.087158203,0,"(0.0, 0.0, 0.0, 0.0, 0.0, 0.0, 0.0, 0.0, 0.0)",0,0,0,"(0.0, 0.0, 0.0, 0.0, 0.0, 0.0, 0.0, 0.0, 0.0)",0.325390637,0.090917967,9.785644531,"(0.0, 0.0, 0.0, 0.0, 0.0, 0.0, 0.0, 0.0, 0.0)"
2024/07/10/17:00:44.347309,15462,1700604928,523150290,,0.521850586,-1.90612793,-3.087158203,0,"(0.0, 0.0, 0.0, 0.0, 0.0, 0.0, 0.0, 0.0, 0.0)",0,0,0,"(0.0, 0.0, 0.0, 0.0, 0.0, 0.0, 0.0, 0.0, 0.0)",0.320605457,0.095703125,9.790430069,"(0.0, 0.0, 0.0, 0.0, 0.0, 0.0, 0.0, 0.0, 0.0)"
2024/07/10/17:00:44.445578,15463,1700604928,622742101,,0.521850586,-1.90612793,-3.087158203,0,"(0.0, 0.0, 0.0, 0.0, 0.0, 0.0, 0.0, 0.0, 0.0)",0,0,0,"(0.0, 0.0, 0.0, 0.0, 0.0, 0.0, 0.0, 0.0, 0.0)",0.330175787,0.090917967,9.780858994,"(0.0, 0.0, 0.0, 0.0, 0.0, 0.0, 0.0, 0.0, 0.0)"
2024/07/10/17:00:44.544804,15464,1700604928,722412097,,0.521850586,-1.90612793,-3.087158203,0,"(0.0, 0.0, 0.0, 0.0, 0.0, 0.0, 0.0, 0.0, 0.0)",0,0,0,"(0.0, 0.0, 0.0, 0.0, 0.0, 0.0, 0.0, 0.0, 0.0)",0.325390637,0.090917967,9.785644531,"(0.0, 0.0, 0.0, 0.0, 0.0, 0.0, 0.0, 0.0, 0.0)"
2024/07/10/17:00:44.646675,15465,1700604928,822151370,,0.521850586,-1.90612793,-3.087158203,0,"(0.0, 0.0, 0.0, 0.0, 0.0, 0.0, 0.0, 0.0, 0.0)",0,0,0,"(0.0, 0.0, 0.0, 0.0, 0.0, 0.0, 0.0, 0.0, 0.0)",0.320605457,0.081347659,9.780858994,"(0.0, 0.0, 0.0, 0.0, 0.0, 0.0, 0.0, 0.0, 0.0)"
2024/07/10/17:00:44.746592,15466,1700604928,921692404,,0.521850586,-1.90612793,-3.087158203,0,"(0.0, 0.0, 0.0, 0.0, 0.0, 0.0, 0.0, 0.0, 0.0)",0,0,0,"(0.0, 0.0, 0.0, 0.0, 0.0, 0.0, 0.0, 0.0, 0.0)",0.320605457,0.08613281,9.785644531,"(0.0, 0.0, 0.0, 0.0, 0.0, 0.0, 0.0, 0.0, 0.0)"
2024/07/10/17:00:44.848458,15467,1700604929,21398288,,0.521850586,-1.90612793,-3.087158203,0,"(0.0, 0.0, 0.0, 0.0, 0.0, 0.0, 0.0, 0.0, 0.0)",0,0,0,"(0.0, 0.0, 0.0, 0.0, 0.0, 0.0, 0.0, 0.0, 0.0)",0.325390637,0.08613281,9.780858994,"(0.0, 0.0, 0.0, 0.0, 0.0, 0.0, 0.0, 0.0, 0.0)"
2024/07/10/17:00:44.952441,15468,1700604929,120991100,,0.521850586,-1.90612793,-3.087158203,0,"(0.0, 0.0, 0.0, 0.0, 0.0, 0.0, 0.0, 0.0, 0.0)",0,0,0,"(0.0, 0.0, 0.0, 0.0, 0.0, 0.0, 0.0, 0.0, 0.0)",0.325390637,0.08613281,9.785644531,"(0.0, 0.0, 0.0, 0.0, 0.0, 0.0, 0.0, 0.0, 0.0)"
2024/07/10/17:00:45.043537,15469,1700604929,220647095,,0.521850586,-1.90612793,-3.087158203,0,"(0.0, 0.0, 0.0, 0.0, 0.0, 0.0, 0.0, 0.0, 0.0)",0,0,0,"(0.0, 0.0, 0.0, 0.0, 0.0, 0.0, 0.0, 0.0, 0.0)",0.325390637,0.081347659,9.780858994,"(0.0, 0.0, 0.0, 0.0, 0.0, 0.0, 0.0, 0.0, 0.0)"
2024/07/10/17:00:45.142711,15470,1700604929,320292443,,0.521850586,-1.90612793,-3.087158203,0,"(0.0, 0.0, 0.0, 0.0, 0.0, 0.0, 0.0, 0.0, 0.0)",0,0,0,"(0.0, 0.0, 0.0, 0.0, 0.0, 0.0, 0.0, 0.0, 0.0)",0.325390637,0.090917967,9.780858994,"(0.0, 0.0, 0.0, 0.0, 0.0, 0.0, 0.0, 0.0, 0.0)"
2024/07/10/17:00:45.242859,15471,1700604929,419904402,,0.521850586,-1.90612793,-3.087158203,0,"(0.0, 0.0, 0.0, 0.0, 0.0, 0.0, 0.0, 0.0, 0.0)",0,0,0,"(0.0, 0.0, 0.0, 0.0, 0.0, 0.0, 0.0, 0.0, 0.0)",0.325390637,0.081347659,9.785644531,"(0.0, 0.0, 0.0, 0.0, 0.0, 0.0, 0.0, 0.0, 0.0)"
2024/07/10/17:00:45.343194,15472,1700604929,519582546,,0.521850586,-1.90612793,-3.087158203,0,"(0.0, 0.0, 0.0, 0.0, 0.0, 0.0, 0.0, 0.0, 0.0)",0,0,0,"(0.0, 0.0, 0.0, 0.0, 0.0, 0.0, 0.0, 0.0, 0.0)",0.325390637,0.090917967,9.776074409,"(0.0, 0.0, 0.0, 0.0, 0.0, 0.0, 0.0, 0.0, 0.0)"
2024/07/10/17:00:45.442786,15473,1700604929,619301041,,0.521850586,-1.90612793,-3.087158203,0,"(0.0, 0.0, 0.0, 0.0, 0.0, 0.0, 0.0, 0.0, 0.0)",0,0,0,"(0.0, 0.0, 0.0, 0.0, 0.0, 0.0, 0.0, 0.0, 0.0)",0.325390637,0.081347659,9.785644531,"(0.0, 0.0, 0.0, 0.0, 0.0, 0.0, 0.0, 0.0, 0.0)"
2024/07/10/17:00:45.541881,15474,1700604929,718875112,,0.521850586,-1.90612793,-3.087158203,0,"(0.0, 0.0, 0.0, 0.0, 0.0, 0.0, 0.0, 0.0, 0.0)",0,0,0,"(0.0, 0.0, 0.0, 0.0, 0.0, 0.0, 0.0, 0.0, 0.0)",0.330175787,0.08613281,9.771288872,"(0.0, 0.0, 0.0, 0.0, 0.0, 0.0, 0.0, 0.0, 0.0)"
2024/07/10/17:00:45.641523,15475,1700604929,818526386,,0.521850586,-1.90612793,-3.087158203,0,"(0.0, 0.0, 0.0, 0.0, 0.0, 0.0, 0.0, 0.0, 0.0)",0,0,0,"(0.0, 0.0, 0.0, 0.0, 0.0, 0.0, 0.0, 0.0, 0.0)",0.320605457,0.08613281,9.776074409,"(0.0, 0.0, 0.0, 0.0, 0.0, 0.0, 0.0, 0.0, 0.0)"
2024/07/10/17:00:45.741259,15476,1700604929,918302140,,0.521850586,-1.90612793,-3.087158203,0,"(0.0, 0.0, 0.0, 0.0, 0.0, 0.0, 0.0, 0.0, 0.0)",0,0,0,"(0.0, 0.0, 0.0, 0.0, 0.0, 0.0, 0.0, 0.0, 0.0)",0.325390637,0.081347659,9.776074409,"(0.0, 0.0, 0.0, 0.0, 0.0, 0.0, 0.0, 0.0, 0.0)"
2024/07/10/17:00:45.840768,15477,1700604930,17815044,,0.521850586,-1.90612793,-3.087158203,0,"(0.0, 0.0, 0.0, 0.0, 0.0, 0.0, 0.0, 0.0, 0.0)",0,0,0,"(0.0, 0.0, 0.0, 0.0, 0.0, 0.0, 0.0, 0.0, 0.0)",0.325390637,0.090917967,9.780858994,"(0.0, 0.0, 0.0, 0.0, 0.0, 0.0, 0.0, 0.0, 0.0)"
2024/07/10/17:00:45.940433,15478,1700604930,117497633,,0.521850586,-1.90612793,-3.087158203,0,"(0.0, 0.0, 0.0, 0.0, 0.0, 0.0, 0.0, 0.0, 0.0)",0,0,0,"(0.0, 0.0, 0.0, 0.0, 0.0, 0.0, 0.0, 0.0, 0.0)",0.320605457,0.090917967,9.785644531,"(0.0, 0.0, 0.0, 0.0, 0.0, 0.0, 0.0, 0.0, 0.0)"
2024/07/10/17:00:46.041987,15479,1700604930,217123851,,0.521850586,-1.90612793,-3.087158203,0,"(0.0, 0.0, 0.0, 0.0, 0.0, 0.0, 0.0, 0.0, 0.0)",0,0,0,"(0.0, 0.0, 0.0, 0.0, 0.0, 0.0, 0.0, 0.0, 0.0)",0.315820307,0.08613281,9.766504288,"(0.0, 0.0, 0.0, 0.0, 0.0, 0.0, 0.0, 0.0, 0.0)"
2024/07/10/17:00:46.139461,15480,1700604930,316770940,,0.521850586,-1.90612793,-3.087158203,0,"(0.0, 0.0, 0.0, 0.0, 0.0, 0.0, 0.0, 0.0, 0.0)",0,0,0,"(0.0, 0.0, 0.0, 0.0, 0.0, 0.0, 0.0, 0.0, 0.0)",0.325390637,0.08613281,9.776074409,"(0.0, 0.0, 0.0, 0.0, 0.0, 0.0, 0.0, 0.0, 0.0)"
2024/07/10/17:00:46.239148,15481,1700604930,416457250,,0.521850586,-1.90612793,-3.087158203,0,"(0.0, 0.0, 0.0, 0.0, 0.0, 0.0, 0.0, 0.0, 0.0)",0,0,0,"(0.0, 0.0, 0.0, 0.0, 0.0, 0.0, 0.0, 0.0, 0.0)",0.330175787,0.090917967,9.785644531,"(0.0, 0.0, 0.0, 0.0, 0.0, 0.0, 0.0, 0.0, 0.0)"
2024/07/10/17:00:46.339344,15482,1700604930,516068265,,0.521850586,-1.90612793,-3.087158203,0,"(0.0, 0.0, 0.0, 0.0, 0.0, 0.0, 0.0, 0.0, 0.0)",0,0,0,"(0.0, 0.0, 0.0, 0.0, 0.0, 0.0, 0.0, 0.0, 0.0)",0.320605457,0.08613281,9.785644531,"(0.0, 0.0, 0.0, 0.0, 0.0, 0.0, 0.0, 0.0, 0.0)"
2024/07/10/17:00:46.443944,15483,1700604930,615720316,,0.521850586,-1.90612793,-3.087158203,0,"(0.0, 0.0, 0.0, 0.0, 0.0, 0.0, 0.0, 0.0, 0.0)",0,0,0,"(0.0, 0.0, 0.0, 0.0, 0.0, 0.0, 0.0, 0.0, 0.0)",0.320605457,0.090917967,9.785644531,"(0.0, 0.0, 0.0, 0.0, 0.0, 0.0, 0.0, 0.0, 0.0)"
2024/07/10/17:00:46.539916,15484,1700604930,715458348,,0.521850586,-1.90612793,-3.087158203,0,"(0.0, 0.0, 0.0, 0.0, 0.0, 0.0, 0.0, 0.0, 0.0)",0,0,0,"(0.0, 0.0, 0.0, 0.0, 0.0, 0.0, 0.0, 0.0, 0.0)",0.315820307,0.090917967,9.785644531,"(0.0, 0.0, 0.0, 0.0, 0.0, 0.0, 0.0, 0.0, 0.0)"
2024/07/10/17:00:46.639121,15485,1700604930,815025845,,0.521850586,-1.90612793,-3.087158203,0,"(0.0, 0.0, 0.0, 0.0, 0.0, 0.0, 0.0, 0.0, 0.0)",0,0,0,"(0.0, 0.0, 0.0, 0.0, 0.0, 0.0, 0.0, 0.0, 0.0)",0.320605457,0.08613281,9.785644531,"(0.0, 0.0, 0.0, 0.0, 0.0, 0.0, 0.0, 0.0, 0.0)"
2024/07/10/17:00:46.737406,15486,1700604930,914691267,,0.521850586,-1.90612793,-3.087158203,0,"(0.0, 0.0, 0.0, 0.0, 0.0, 0.0, 0.0, 0.0, 0.0)",0,0,0,"(0.0, 0.0, 0.0, 0.0, 0.0, 0.0, 0.0, 0.0, 0.0)",0.325390637,0.08613281,9.785644531,"(0.0, 0.0, 0.0, 0.0, 0.0, 0.0, 0.0, 0.0, 0.0)"
2024/07/10/17:00:46.837311,15487,1700604931,14453354,,0.521850586,-1.900634766,-3.087158203,0,"(0.0, 0.0, 0.0, 0.0, 0.0, 0.0, 0.0, 0.0, 0.0)",0,0,0,"(0.0, 0.0, 0.0, 0.0, 0.0, 0.0, 0.0, 0.0, 0.0)",0.320605457,0.08613281,9.785644531,"(0.0, 0.0, 0.0, 0.0, 0.0, 0.0, 0.0, 0.0, 0.0)"
2024/07/10/17:00:46.936835,15488,1700604931,113965888,,0.521850586,-1.900634766,-3.087158203,0,"(0.0, 0.0, 0.0, 0.0, 0.0, 0.0, 0.0, 0.0, 0.0)",0,0,0,"(0.0, 0.0, 0.0, 0.0, 0.0, 0.0, 0.0, 0.0, 0.0)",0.320605457,0.08613281,9.776074409,"(0.0, 0.0, 0.0, 0.0, 0.0, 0.0, 0.0, 0.0, 0.0)"
2024/07/10/17:00:47.036492,15489,1700604931,213606921,,0.516357422,-1.900634766,-3.087158203,0,"(0.0, 0.0, 0.0, 0.0, 0.0, 0.0, 0.0, 0.0, 0.0)",0,0,0,"(0.0, 0.0, 0.0, 0.0, 0.0, 0.0, 0.0, 0.0, 0.0)",0.320605457,0.08613281,9.776074409,"(0.0, 0.0, 0.0, 0.0, 0.0, 0.0, 0.0, 0.0, 0.0)"
2024/07/10/17:00:47.136210,15490,1700604931,313255806,,0.516357422,-1.900634766,-3.087158203,0,"(0.0, 0.0, 0.0, 0.0, 0.0, 0.0, 0.0, 0.0, 0.0)",0,0,0,"(0.0, 0.0, 0.0, 0.0, 0.0, 0.0, 0.0, 0.0, 0.0)",0.320605457,0.090917967,9.780858994,"(0.0, 0.0, 0.0, 0.0, 0.0, 0.0, 0.0, 0.0, 0.0)"
2024/07/10/17:00:47.235808,15491,1700604931,412883376,,0.516357422,-1.900634766,-3.087158203,0,"(0.0, 0.0, 0.0, 0.0, 0.0, 0.0, 0.0, 0.0, 0.0)",0,0,0,"(0.0, 0.0, 0.0, 0.0, 0.0, 0.0, 0.0, 0.0, 0.0)",0.315820307,0.08613281,9.785644531,"(0.0, 0.0, 0.0, 0.0, 0.0, 0.0, 0.0, 0.0, 0.0)"
2024/07/10/17:00:47.335256,15492,1700604931,512572076,,0.516357422,-1.900634766,-3.087158203,0,"(0.0, 0.0, 0.0, 0.0, 0.0, 0.0, 0.0, 0.0, 0.0)",0,0,0,"(0.0, 0.0, 0.0, 0.0, 0.0, 0.0, 0.0, 0.0, 0.0)",0.315820307,0.08613281,9.785644531,"(0.0, 0.0, 0.0, 0.0, 0.0, 0.0, 0.0, 0.0, 0.0)"
2024/07/10/17:00:47.435447,15493,1700604931,612195072,,0.521850586,-1.900634766,-3.087158203,0,"(0.0, 0.0, 0.0, 0.0, 0.0, 0.0, 0.0, 0.0, 0.0)",0,0,0,"(0.0, 0.0, 0.0, 0.0, 0.0, 0.0, 0.0, 0.0, 0.0)",0.320605457,0.081347659,9.785644531,"(0.0, 0.0, 0.0, 0.0, 0.0, 0.0, 0.0, 0.0, 0.0)"
2024/07/10/17:00:47.534896,15494,1700604931,711871882,,0.516357422,-1.900634766,-3.087158203,0,"(0.0, 0.0, 0.0, 0.0, 0.0, 0.0, 0.0, 0.0, 0.0)",0,0,0,"(0.0, 0.0, 0.0, 0.0, 0.0, 0.0, 0.0, 0.0, 0.0)",0.320605457,0.081347659,9.776074409,"(0.0, 0.0, 0.0, 0.0, 0.0, 0.0, 0.0, 0.0, 0.0)"
2024/07/10/17:00:47.636300,15495,1700604931,811608618,,0.516357422,-1.900634766,-3.087158203,0,"(0.0, 0.0, 0.0, 0.0, 0.0, 0.0, 0.0, 0.0, 0.0)",0,0,0,"(0.0, 0.0, 0.0, 0.0, 0.0, 0.0, 0.0, 0.0, 0.0)",0.315820307,0.090917967,9.785644531,"(0.0, 0.0, 0.0, 0.0, 0.0, 0.0, 0.0, 0.0, 0.0)"
2024/07/10/17:00:47.733874,15496,1700604931,911157300,,0.516357422,-1.900634766,-3.087158203,0,"(0.0, 0.0, 0.0, 0.0, 0.0, 0.0, 0.0, 0.0, 0.0)",0,0,0,"(0.0, 0.0, 0.0, 0.0, 0.0, 0.0, 0.0, 0.0, 0.0)",0.325390637,0.081347659,9.785644531,"(0.0, 0.0, 0.0, 0.0, 0.0, 0.0, 0.0, 0.0, 0.0)"
2024/07/10/17:00:47.834252,15497,1700604932,10793630,,0.516357422,-1.900634766,-3.087158203,0,"(0.0, 0.0, 0.0, 0.0, 0.0, 0.0, 0.0, 0.0, 0.0)",0,0,0,"(0.0, 0.0, 0.0, 0.0, 0.0, 0.0, 0.0, 0.0, 0.0)",0.325390637,0.090917967,9.785644531,"(0.0, 0.0, 0.0, 0.0, 0.0, 0.0, 0.0, 0.0, 0.0)"
2024/07/10/17:00:47.935709,15498,1700604932,110605679,,0.516357422,-1.900634766,-3.087158203,0,"(0.0, 0.0, 0.0, 0.0, 0.0, 0.0, 0.0, 0.0, 0.0)",0,0,0,"(0.0, 0.0, 0.0, 0.0, 0.0, 0.0, 0.0, 0.0, 0.0)",0.320605457,0.090917967,9.790430069,"(0.0, 0.0, 0.0, 0.0, 0.0, 0.0, 0.0, 0.0, 0.0)"
2024/07/10/17:00:48.037943,15499,1700604932,210075751,,0.521850586,-1.900634766,-3.087158203,0,"(0.0, 0.0, 0.0, 0.0, 0.0, 0.0, 0.0, 0.0, 0.0)",0,0,0,"(0.0, 0.0, 0.0, 0.0, 0.0, 0.0, 0.0, 0.0, 0.0)",0.325390637,0.08613281,9.785644531,"(0.0, 0.0, 0.0, 0.0, 0.0, 0.0, 0.0, 0.0, 0.0)"
2024/07/10/17:00:48.134313,15500,1700604932,309713840,,0.521850586,-1.900634766,-3.087158203,0,"(0.0, 0.0, 0.0, 0.0, 0.0, 0.0, 0.0, 0.0, 0.0)",0,0,0,"(0.0, 0.0, 0.0, 0.0, 0.0, 0.0, 0.0, 0.0, 0.0)",0.325390637,0.081347659,9.780858994,"(0.0, 0.0, 0.0, 0.0, 0.0, 0.0, 0.0, 0.0, 0.0)"
2024/07/10/17:00:48.231942,15501,1700604932,409358910,,0.521850586,-1.900634766,-3.087158203,0,"(0.0, 0.0, 0.0, 0.0, 0.0, 0.0, 0.0, 0.0, 0.0)",0,0,0,"(0.0, 0.0, 0.0, 0.0, 0.0, 0.0, 0.0, 0.0, 0.0)",0.330175787,0.08613281,9.780858994,"(0.0, 0.0, 0.0, 0.0, 0.0, 0.0, 0.0, 0.0, 0.0)"
2024/07/10/17:00:48.332285,15502,1700604932,509013980,,0.521850586,-1.900634766,-3.087158203,0,"(0.0, 0.0, 0.0, 0.0, 0.0, 0.0, 0.0, 0.0, 0.0)",0,0,0,"(0.0, 0.0, 0.0, 0.0, 0.0, 0.0, 0.0, 0.0, 0.0)",0.325390637,0.08613281,9.780858994,"(0.0, 0.0, 0.0, 0.0, 0.0, 0.0, 0.0, 0.0, 0.0)"
2024/07/10/17:00:48.431316,15503,1700604932,608725197,,0.521850586,-1.900634766,-3.087158203,0,"(0.0, 0.0, 0.0, 0.0, 0.0, 0.0, 0.0, 0.0, 0.0)",0,0,0,"(0.0, 0.0, 0.0, 0.0, 0.0, 0.0, 0.0, 0.0, 0.0)",0.320605457,0.076562501,9.780858994,"(0.0, 0.0, 0.0, 0.0, 0.0, 0.0, 0.0, 0.0, 0.0)"
2024/07/10/17:00:48.533238,15504,1700604932,708282305,,0.516357422,-1.900634766,-3.087158203,0,"(0.0, 0.0, 0.0, 0.0, 0.0, 0.0, 0.0, 0.0, 0.0)",0,0,0,"(0.0, 0.0, 0.0, 0.0, 0.0, 0.0, 0.0, 0.0, 0.0)",0.325390637,0.08613281,9.785644531,"(0.0, 0.0, 0.0, 0.0, 0.0, 0.0, 0.0, 0.0, 0.0)"
2024/07/10/17:00:48.634254,15505,1700604932,807957616,,0.516357422,-1.900634766,-3.087158203,0,"(0.0, 0.0, 0.0, 0.0, 0.0, 0.0, 0.0, 0.0, 0.0)",0,0,0,"(0.0, 0.0, 0.0, 0.0, 0.0, 0.0, 0.0, 0.0, 0.0)",0.330175787,0.081347659,9.780858994,"(0.0, 0.0, 0.0, 0.0, 0.0, 0.0, 0.0, 0.0, 0.0)"
2024/07/10/17:00:48.730725,15506,1700604932,907719055,,0.516357422,-1.900634766,-3.087158203,0,"(0.0, 0.0, 0.0, 0.0, 0.0, 0.0, 0.0, 0.0, 0.0)",0,0,0,"(0.0, 0.0, 0.0, 0.0, 0.0, 0.0, 0.0, 0.0, 0.0)",0.325390637,0.08613281,9.785644531,"(0.0, 0.0, 0.0, 0.0, 0.0, 0.0, 0.0, 0.0, 0.0)"
2024/07/10/17:00:48.845697,15507,1700604933,7221886,,0.516357422,-1.900634766,-3.087158203,0,"(0.0, 0.0, 0.0, 0.0, 0.0, 0.0, 0.0, 0.0, 0.0)",0,0,0,"(0.0, 0.0, 0.0, 0.0, 0.0, 0.0, 0.0, 0.0, 0.0)",0.325390637,0.08613281,9.785644531,"(0.0, 0.0, 0.0, 0.0, 0.0, 0.0, 0.0, 0.0, 0.0)"
2024/07/10/17:00:48.946054,15508,1700604933,106871678,,0.516357422,-1.900634766,-3.087158203,0,"(0.0, 0.0, 0.0, 0.0, 0.0, 0.0, 0.0, 0.0, 0.0)",0,0,0,"(0.0, 0.0, 0.0, 0.0, 0.0, 0.0, 0.0, 0.0, 0.0)",0.325390637,0.08613281,9.776074409,"(0.0, 0.0, 0.0, 0.0, 0.0, 0.0, 0.0, 0.0, 0.0)"
2024/07/10/17:00:49.031221,15509,1700604933,206536711,,0.516357422,-1.900634766,-3.087158203,0,"(0.0, 0.0, 0.0, 0.0, 0.0, 0.0, 0.0, 0.0, 0.0)",0,0,0,"(0.0, 0.0, 0.0, 0.0, 0.0, 0.0, 0.0, 0.0, 0.0)",0.325390637,0.090917967,9.785644531,"(0.0, 0.0, 0.0, 0.0, 0.0, 0.0, 0.0, 0.0, 0.0)"
2024/07/10/17:00:49.129113,15510,1700604933,306191299,,0.516357422,-1.900634766,-3.087158203,0,"(0.0, 0.0, 0.0, 0.0, 0.0, 0.0, 0.0, 0.0, 0.0)",0,0,0,"(0.0, 0.0, 0.0, 0.0, 0.0, 0.0, 0.0, 0.0, 0.0)",0.320605457,0.08613281,9.785644531,"(0.0, 0.0, 0.0, 0.0, 0.0, 0.0, 0.0, 0.0, 0.0)"
2024/07/10/17:00:49.230380,15511,1700604933,405886332,,0.516357422,-1.900634766,-3.087158203,0,"(0.0, 0.0, 0.0, 0.0, 0.0, 0.0, 0.0, 0.0, 0.0)",0,0,0,"(0.0, 0.0, 0.0, 0.0, 0.0, 0.0, 0.0, 0.0, 0.0)",0.320605457,0.08613281,9.790430069,"(0.0, 0.0, 0.0, 0.0, 0.0, 0.0, 0.0, 0.0, 0.0)"
2024/07/10/17:00:49.328063,15512,1700604933,505485569,,0.516357422,-1.900634766,-3.087158203,0,"(0.0, 0.0, 0.0, 0.0, 0.0, 0.0, 0.0, 0.0, 0.0)",0,0,0,"(0.0, 0.0, 0.0, 0.0, 0.0, 0.0, 0.0, 0.0, 0.0)",0.330175787,0.08613281,9.785644531,"(0.0, 0.0, 0.0, 0.0, 0.0, 0.0, 0.0, 0.0, 0.0)"
2024/07/10/17:00:49.428122,15513,1700604933,605131713,,0.516357422,-1.900634766,-3.087158203,0,"(0.0, 0.0, 0.0, 0.0, 0.0, 0.0, 0.0, 0.0, 0.0)",0,0,0,"(0.0, 0.0, 0.0, 0.0, 0.0, 0.0, 0.0, 0.0, 0.0)",0.320605457,0.08613281,9.785644531,"(0.0, 0.0, 0.0, 0.0, 0.0, 0.0, 0.0, 0.0, 0.0)"
2024/07/10/17:00:49.527863,15514,1700604933,704869541,,0.516357422,-1.900634766,-3.087158203,0,"(0.0, 0.0, 0.0, 0.0, 0.0, 0.0, 0.0, 0.0, 0.0)",0,0,0,"(0.0, 0.0, 0.0, 0.0, 0.0, 0.0, 0.0, 0.0, 0.0)",0.320605457,0.08613281,9.780858994,"(0.0, 0.0, 0.0, 0.0, 0.0, 0.0, 0.0, 0.0, 0.0)"
2024/07/10/17:00:49.627389,15515,1700604933,804420112,,0.516357422,-1.900634766,-3.087158203,0,"(0.0, 0.0, 0.0, 0.0, 0.0, 0.0, 0.0, 0.0, 0.0)",0,0,0,"(0.0, 0.0, 0.0, 0.0, 0.0, 0.0, 0.0, 0.0, 0.0)",0.315820307,0.08613281,9.780858994,"(0.0, 0.0, 0.0, 0.0, 0.0, 0.0, 0.0, 0.0, 0.0)"
2024/07/10/17:00:49.732168,15516,1700604933,904088886,,0.516357422,-1.900634766,-3.087158203,0,"(0.0, 0.0, 0.0, 0.0, 0.0, 0.0, 0.0, 0.0, 0.0)",0,0,0,"(0.0, 0.0, 0.0, 0.0, 0.0, 0.0, 0.0, 0.0, 0.0)",0.320605457,0.081347659,9.776074409,"(0.0, 0.0, 0.0, 0.0, 0.0, 0.0, 0.0, 0.0, 0.0)"
2024/07/10/17:00:49.827045,15517,1700604934,3865325,,0.516357422,-1.900634766,-3.087158203,0,"(0.0, 0.0, 0.0, 0.0, 0.0, 0.0, 0.0, 0.0, 0.0)",0,0,0,"(0.0, 0.0, 0.0, 0.0, 0.0, 0.0, 0.0, 0.0, 0.0)",0.325390637,0.08613281,9.780858994,"(0.0, 0.0, 0.0, 0.0, 0.0, 0.0, 0.0, 0.0, 0.0)"
2024/07/10/17:00:49.926600,15518,1700604934,103378229,,0.516357422,-1.900634766,-3.087158203,0,"(0.0, 0.0, 0.0, 0.0, 0.0, 0.0, 0.0, 0.0, 0.0)",0,0,0,"(0.0, 0.0, 0.0, 0.0, 0.0, 0.0, 0.0, 0.0, 0.0)",0.330175787,0.08613281,9.785644531,"(0.0, 0.0, 0.0, 0.0, 0.0, 0.0, 0.0, 0.0, 0.0)"
2024/07/10/17:00:50.029964,15519,1700604934,203082521,,0.516357422,-1.900634766,-3.087158203,0,"(0.0, 0.0, 0.0, 0.0, 0.0, 0.0, 0.0, 0.0, 0.0)",0,0,0,"(0.0, 0.0, 0.0, 0.0, 0.0, 0.0, 0.0, 0.0, 0.0)",0.325390637,0.08613281,9.780858994,"(0.0, 0.0, 0.0, 0.0, 0.0, 0.0, 0.0, 0.0, 0.0)"
2024/07/10/17:00:50.125567,15520,1700604934,302672351,,0.516357422,-1.900634766,-3.087158203,0,"(0.0, 0.0, 0.0, 0.0, 0.0, 0.0, 0.0, 0.0, 0.0)",0,0,0,"(0.0, 0.0, 0.0, 0.0, 0.0, 0.0, 0.0, 0.0, 0.0)",0.330175787,0.08613281,9.785644531,"(0.0, 0.0, 0.0, 0.0, 0.0, 0.0, 0.0, 0.0, 0.0)"
2024/07/10/17:00:50.225618,15521,1700604934,402333421,,0.516357422,-1.900634766,-3.087158203,0,"(0.0, 0.0, 0.0, 0.0, 0.0, 0.0, 0.0, 0.0, 0.0)",0,0,0,"(0.0, 0.0, 0.0, 0.0, 0.0, 0.0, 0.0, 0.0, 0.0)",0.325390637,0.08613281,9.780858994,"(0.0, 0.0, 0.0, 0.0, 0.0, 0.0, 0.0, 0.0, 0.0)"
2024/07/10/17:00:50.325058,15522,1700604934,502022120,,0.516357422,-1.90612793,-3.087158203,0,"(0.0, 0.0, 0.0, 0.0, 0.0, 0.0, 0.0, 0.0, 0.0)",0,0,0,"(0.0, 0.0, 0.0, 0.0, 0.0, 0.0, 0.0, 0.0, 0.0)",0.320605457,0.08613281,9.780858994,"(0.0, 0.0, 0.0, 0.0, 0.0, 0.0, 0.0, 0.0, 0.0)"
2024/07/10/17:00:50.424729,15523,1700604934,601643153,,0.516357422,-1.90612793,-3.087158203,0,"(0.0, 0.0, 0.0, 0.0, 0.0, 0.0, 0.0, 0.0, 0.0)",0,0,0,"(0.0, 0.0, 0.0, 0.0, 0.0, 0.0, 0.0, 0.0, 0.0)",0.320605457,0.081347659,9.785644531,"(0.0, 0.0, 0.0, 0.0, 0.0, 0.0, 0.0, 0.0, 0.0)"
2024/07/10/17:00:50.524186,15524,1700604934,701282297,,0.516357422,-1.90612793,-3.087158203,0,"(0.0, 0.0, 0.0, 0.0, 0.0, 0.0, 0.0, 0.0, 0.0)",0,0,0,"(0.0, 0.0, 0.0, 0.0, 0.0, 0.0, 0.0, 0.0, 0.0)",0.325390637,0.08613281,9.785644531,"(0.0, 0.0, 0.0, 0.0, 0.0, 0.0, 0.0, 0.0, 0.0)"
2024/07/10/17:00:50.623813,15525,1700604934,801014996,,0.516357422,-1.90612793,-3.087158203,0,"(0.0, 0.0, 0.0, 0.0, 0.0, 0.0, 0.0, 0.0, 0.0)",0,0,0,"(0.0, 0.0, 0.0, 0.0, 0.0, 0.0, 0.0, 0.0, 0.0)",0.320605457,0.081347659,9.785644531,"(0.0, 0.0, 0.0, 0.0, 0.0, 0.0, 0.0, 0.0, 0.0)"
2024/07/10/17:00:50.723476,15526,1700604934,900599919,,0.516357422,-1.90612793,-3.087158203,0,"(0.0, 0.0, 0.0, 0.0, 0.0, 0.0, 0.0, 0.0, 0.0)",0,0,0,"(0.0, 0.0, 0.0, 0.0, 0.0, 0.0, 0.0, 0.0, 0.0)",0.315820307,0.090917967,9.785644531,"(0.0, 0.0, 0.0, 0.0, 0.0, 0.0, 0.0, 0.0, 0.0)"
2024/07/10/17:00:50.824331,15527,1700604935,274840,,0.516357422,-1.90612793,-3.087158203,0,"(0.0, 0.0, 0.0, 0.0, 0.0, 0.0, 0.0, 0.0, 0.0)",0,0,0,"(0.0, 0.0, 0.0, 0.0, 0.0, 0.0, 0.0, 0.0, 0.0)",0.320605457,0.081347659,9.780858994,"(0.0, 0.0, 0.0, 0.0, 0.0, 0.0, 0.0, 0.0, 0.0)"
2024/07/10/17:00:50.924362,15528,1700604935,100019483,,0.516357422,-1.900634766,-3.087158203,0,"(0.0, 0.0, 0.0, 0.0, 0.0, 0.0, 0.0, 0.0, 0.0)",0,0,0,"(0.0, 0.0, 0.0, 0.0, 0.0, 0.0, 0.0, 0.0, 0.0)",0.325390637,0.08613281,9.790430069,"(0.0, 0.0, 0.0, 0.0, 0.0, 0.0, 0.0, 0.0, 0.0)"
2024/07/10/17:00:51.023259,15529,1700604935,199543332,,0.516357422,-1.900634766,-3.087158203,0,"(0.0, 0.0, 0.0, 0.0, 0.0, 0.0, 0.0, 0.0, 0.0)",0,0,0,"(0.0, 0.0, 0.0, 0.0, 0.0, 0.0, 0.0, 0.0, 0.0)",0.325390637,0.08613281,9.780858994,"(0.0, 0.0, 0.0, 0.0, 0.0, 0.0, 0.0, 0.0, 0.0)"
2024/07/10/17:00:51.122127,15530,1700604935,299226124,,0.516357422,-1.900634766,-3.087158203,0,"(0.0, 0.0, 0.0, 0.0, 0.0, 0.0, 0.0, 0.0, 0.0)",0,0,0,"(0.0, 0.0, 0.0, 0.0, 0.0, 0.0, 0.0, 0.0, 0.0)",0.325390637,0.08613281,9.780858994,"(0.0, 0.0, 0.0, 0.0, 0.0, 0.0, 0.0, 0.0, 0.0)"
2024/07/10/17:00:51.221734,15531,1700604935,398830843,,0.516357422,-1.900634766,-3.087158203,0,"(0.0, 0.0, 0.0, 0.0, 0.0, 0.0, 0.0, 0.0, 0.0)",0,0,0,"(0.0, 0.0, 0.0, 0.0, 0.0, 0.0, 0.0, 0.0, 0.0)",0.320605457,0.081347659,9.790430069,"(0.0, 0.0, 0.0, 0.0, 0.0, 0.0, 0.0, 0.0, 0.0)"
2024/07/10/17:00:51.323340,15532,1700604935,498478876,,0.516357422,-1.900634766,-3.087158203,0,"(0.0, 0.0, 0.0, 0.0, 0.0, 0.0, 0.0, 0.0, 0.0)",0,0,0,"(0.0, 0.0, 0.0, 0.0, 0.0, 0.0, 0.0, 0.0, 0.0)",0.320605457,0.081347659,9.780858994,"(0.0, 0.0, 0.0, 0.0, 0.0, 0.0, 0.0, 0.0, 0.0)"
2024/07/10/17:00:51.421145,15533,1700604935,598142186,,0.516357422,-1.900634766,-3.087158203,0,"(0.0, 0.0, 0.0, 0.0, 0.0, 0.0, 0.0, 0.0, 0.0)",0,0,0,"(0.0, 0.0, 0.0, 0.0, 0.0, 0.0, 0.0, 0.0, 0.0)",0.325390637,0.081347659,9.785644531,"(0.0, 0.0, 0.0, 0.0, 0.0, 0.0, 0.0, 0.0, 0.0)"
2024/07/10/17:00:51.522339,15534,1700604935,697766312,,0.516357422,-1.900634766,-3.087158203,0,"(0.0, 0.0, 0.0, 0.0, 0.0, 0.0, 0.0, 0.0, 0.0)",0,0,0,"(0.0, 0.0, 0.0, 0.0, 0.0, 0.0, 0.0, 0.0, 0.0)",0.330175787,0.08613281,9.790430069,"(0.0, 0.0, 0.0, 0.0, 0.0, 0.0, 0.0, 0.0, 0.0)"
2024/07/10/17:00:51.621816,15535,1700604935,797417234,,0.516357422,-1.900634766,-3.087158203,0,"(0.0, 0.0, 0.0, 0.0, 0.0, 0.0, 0.0, 0.0, 0.0)",0,0,0,"(0.0, 0.0, 0.0, 0.0, 0.0, 0.0, 0.0, 0.0, 0.0)",0.320605457,0.08613281,9.785644531,"(0.0, 0.0, 0.0, 0.0, 0.0, 0.0, 0.0, 0.0, 0.0)"
2024/07/10/17:00:51.720159,15536,1700604935,897166914,,0.516357422,-1.900634766,-3.087158203,0,"(0.0, 0.0, 0.0, 0.0, 0.0, 0.0, 0.0, 0.0, 0.0)",0,0,0,"(0.0, 0.0, 0.0, 0.0, 0.0, 0.0, 0.0, 0.0, 0.0)",0.320605457,0.08613281,9.780858994,"(0.0, 0.0, 0.0, 0.0, 0.0, 0.0, 0.0, 0.0, 0.0)"
2024/07/10/17:00:51.819554,15537,1700604935,996708022,,0.516357422,-1.900634766,-3.087158203,0,"(0.0, 0.0, 0.0, 0.0, 0.0, 0.0, 0.0, 0.0, 0.0)",0,0,0,"(0.0, 0.0, 0.0, 0.0, 0.0, 0.0, 0.0, 0.0, 0.0)",0.325390637,0.08613281,9.780858994,"(0.0, 0.0, 0.0, 0.0, 0.0, 0.0, 0.0, 0.0, 0.0)"
2024/07/10/17:00:51.919243,15538,1700604936,96345074,,0.516357422,-1.900634766,-3.087158203,0,"(0.0, 0.0, 0.0, 0.0, 0.0, 0.0, 0.0, 0.0, 0.0)",0,0,0,"(0.0, 0.0, 0.0, 0.0, 0.0, 0.0, 0.0, 0.0, 0.0)",0.320605457,0.081347659,9.790430069,"(0.0, 0.0, 0.0, 0.0, 0.0, 0.0, 0.0, 0.0, 0.0)"
2024/07/10/17:00:52.019070,15539,1700604936,196167512,,0.516357422,-1.900634766,-3.087158203,0,"(0.0, 0.0, 0.0, 0.0, 0.0, 0.0, 0.0, 0.0, 0.0)",0,0,0,"(0.0, 0.0, 0.0, 0.0, 0.0, 0.0, 0.0, 0.0, 0.0)",0.325390637,0.08613281,9.776074409,"(0.0, 0.0, 0.0, 0.0, 0.0, 0.0, 0.0, 0.0, 0.0)"
2024/07/10/17:00:52.121951,15540,1700604936,295637066,,0.516357422,-1.900634766,-3.087158203,0,"(0.0, 0.0, 0.0, 0.0, 0.0, 0.0, 0.0, 0.0, 0.0)",0,0,0,"(0.0, 0.0, 0.0, 0.0, 0.0, 0.0, 0.0, 0.0, 0.0)",0.320605457,0.090917967,9.785644531,"(0.0, 0.0, 0.0, 0.0, 0.0, 0.0, 0.0, 0.0, 0.0)"
2024/07/10/17:00:52.220819,15541,1700604936,395321172,,0.516357422,-1.900634766,-3.087158203,0,"(0.0, 0.0, 0.0, 0.0, 0.0, 0.0, 0.0, 0.0, 0.0)",0,0,0,"(0.0, 0.0, 0.0, 0.0, 0.0, 0.0, 0.0, 0.0, 0.0)",0.325390637,0.081347659,9.776074409,"(0.0, 0.0, 0.0, 0.0, 0.0, 0.0, 0.0, 0.0, 0.0)"
2024/07/10/17:00:52.318972,15542,1700604936,494923298,,0.516357422,-1.900634766,-3.087158203,0,"(0.0, 0.0, 0.0, 0.0, 0.0, 0.0, 0.0, 0.0, 0.0)",0,0,0,"(0.0, 0.0, 0.0, 0.0, 0.0, 0.0, 0.0, 0.0, 0.0)",0.320605457,0.08613281,9.780858994,"(0.0, 0.0, 0.0, 0.0, 0.0, 0.0, 0.0, 0.0, 0.0)"
2024/07/10/17:00:52.417454,15543,1700604936,594590165,,0.516357422,-1.900634766,-3.087158203,0,"(0.0, 0.0, 0.0, 0.0, 0.0, 0.0, 0.0, 0.0, 0.0)",0,0,0,"(0.0, 0.0, 0.0, 0.0, 0.0, 0.0, 0.0, 0.0, 0.0)",0.320605457,0.081347659,9.785644531,"(0.0, 0.0, 0.0, 0.0, 0.0, 0.0, 0.0, 0.0, 0.0)"
2024/07/10/17:00:52.517123,15544,1700604936,694275956,,0.516357422,-1.900634766,-3.087158203,0,"(0.0, 0.0, 0.0, 0.0, 0.0, 0.0, 0.0, 0.0, 0.0)",0,0,0,"(0.0, 0.0, 0.0, 0.0, 0.0, 0.0, 0.0, 0.0, 0.0)",0.330175787,0.090917967,9.776074409,"(0.0, 0.0, 0.0, 0.0, 0.0, 0.0, 0.0, 0.0, 0.0)"
2024/07/10/17:00:52.617590,15545,1700604936,793873305,,0.516357422,-1.900634766,-3.087158203,0,"(0.0, 0.0, 0.0, 0.0, 0.0, 0.0, 0.0, 0.0, 0.0)",0,0,0,"(0.0, 0.0, 0.0, 0.0, 0.0, 0.0, 0.0, 0.0, 0.0)",0.320605457,0.08613281,9.780858994,"(0.0, 0.0, 0.0, 0.0, 0.0, 0.0, 0.0, 0.0, 0.0)"
2024/07/10/17:00:52.716366,15546,1700604936,893512171,,0.516357422,-1.900634766,-3.087158203,0,"(0.0, 0.0, 0.0, 0.0, 0.0, 0.0, 0.0, 0.0, 0.0)",0,0,0,"(0.0, 0.0, 0.0, 0.0, 0.0, 0.0, 0.0, 0.0, 0.0)",0.320605457,0.08613281,9.785644531,"(0.0, 0.0, 0.0, 0.0, 0.0, 0.0, 0.0, 0.0, 0.0)"
2024/07/10/17:00:52.816203,15547,1700604936,993276647,,0.516357422,-1.900634766,-3.087158203,0,"(0.0, 0.0, 0.0, 0.0, 0.0, 0.0, 0.0, 0.0, 0.0)",0,0,0,"(0.0, 0.0, 0.0, 0.0, 0.0, 0.0, 0.0, 0.0, 0.0)",0.315820307,0.090917967,9.780858994,"(0.0, 0.0, 0.0, 0.0, 0.0, 0.0, 0.0, 0.0, 0.0)"
2024/07/10/17:00:52.917361,15548,1700604937,92806274,,0.516357422,-1.900634766,-3.087158203,0,"(0.0, 0.0, 0.0, 0.0, 0.0, 0.0, 0.0, 0.0, 0.0)",0,0,0,"(0.0, 0.0, 0.0, 0.0, 0.0, 0.0, 0.0, 0.0, 0.0)",0.320605457,0.090917967,9.776074409,"(0.0, 0.0, 0.0, 0.0, 0.0, 0.0, 0.0, 0.0, 0.0)"
2024/07/10/17:00:53.017157,15549,1700604937,192452881,,0.516357422,-1.900634766,-3.087158203,0,"(0.0, 0.0, 0.0, 0.0, 0.0, 0.0, 0.0, 0.0, 0.0)",0,0,0,"(0.0, 0.0, 0.0, 0.0, 0.0, 0.0, 0.0, 0.0, 0.0)",0.325390637,0.090917967,9.780858994,"(0.0, 0.0, 0.0, 0.0, 0.0, 0.0, 0.0, 0.0, 0.0)"
2024/07/10/17:00:53.114922,15550,1700604937,292099284,,0.516357422,-1.900634766,-3.087158203,0,"(0.0, 0.0, 0.0, 0.0, 0.0, 0.0, 0.0, 0.0, 0.0)",0,0,0,"(0.0, 0.0, 0.0, 0.0, 0.0, 0.0, 0.0, 0.0, 0.0)",0.320605457,0.090917967,9.780858994,"(0.0, 0.0, 0.0, 0.0, 0.0, 0.0, 0.0, 0.0, 0.0)"
2024/07/10/17:00:53.216008,15551,1700604937,391726984,,0.516357422,-1.900634766,-3.087158203,0,"(0.0, 0.0, 0.0, 0.0, 0.0, 0.0, 0.0, 0.0, 0.0)",0,0,0,"(0.0, 0.0, 0.0, 0.0, 0.0, 0.0, 0.0, 0.0, 0.0)",0.320605457,0.08613281,9.780858994,"(0.0, 0.0, 0.0, 0.0, 0.0, 0.0, 0.0, 0.0, 0.0)"
2024/07/10/17:00:53.315551,15552,1700604937,491450942,,0.516357422,-1.900634766,-3.087158203,0,"(0.0, 0.0, 0.0, 0.0, 0.0, 0.0, 0.0, 0.0, 0.0)",0,0,0,"(0.0, 0.0, 0.0, 0.0, 0.0, 0.0, 0.0, 0.0, 0.0)",0.320605457,0.08613281,9.785644531,"(0.0, 0.0, 0.0, 0.0, 0.0, 0.0, 0.0, 0.0, 0.0)"
2024/07/10/17:00:53.416723,15553,1700604937,591032791,,0.516357422,-1.900634766,-3.087158203,0,"(0.0, 0.0, 0.0, 0.0, 0.0, 0.0, 0.0, 0.0, 0.0)",0,0,0,"(0.0, 0.0, 0.0, 0.0, 0.0, 0.0, 0.0, 0.0, 0.0)",0.325390637,0.081347659,9.780858994,"(0.0, 0.0, 0.0, 0.0, 0.0, 0.0, 0.0, 0.0, 0.0)"
2024/07/10/17:00:53.514326,15554,1700604937,690691416,,0.516357422,-1.900634766,-3.087158203,0,"(0.0, 0.0, 0.0, 0.0, 0.0, 0.0, 0.0, 0.0, 0.0)",0,0,0,"(0.0, 0.0, 0.0, 0.0, 0.0, 0.0, 0.0, 0.0, 0.0)",0.325390637,0.090917967,9.785644531,"(0.0, 0.0, 0.0, 0.0, 0.0, 0.0, 0.0, 0.0, 0.0)"
2024/07/10/17:00:53.614077,15555,1700604937,790432467,,0.516357422,-1.900634766,-3.087158203,0,"(0.0, 0.0, 0.0, 0.0, 0.0, 0.0, 0.0, 0.0, 0.0)",0,0,0,"(0.0, 0.0, 0.0, 0.0, 0.0, 0.0, 0.0, 0.0, 0.0)",0.320605457,0.08613281,9.785644531,"(0.0, 0.0, 0.0, 0.0, 0.0, 0.0, 0.0, 0.0, 0.0)"
2024/07/10/17:00:53.712931,15556,1700604937,890006815,,0.516357422,-1.900634766,-3.087158203,0,"(0.0, 0.0, 0.0, 0.0, 0.0, 0.0, 0.0, 0.0, 0.0)",0,0,0,"(0.0, 0.0, 0.0, 0.0, 0.0, 0.0, 0.0, 0.0, 0.0)",0.325390637,0.090917967,9.776074409,"(0.0, 0.0, 0.0, 0.0, 0.0, 0.0, 0.0, 0.0, 0.0)"
2024/07/10/17:00:53.814292,15557,1700604937,989678848,,0.516357422,-1.900634766,-3.087158203,0,"(0.0, 0.0, 0.0, 0.0, 0.0, 0.0, 0.0, 0.0, 0.0)",0,0,0,"(0.0, 0.0, 0.0, 0.0, 0.0, 0.0, 0.0, 0.0, 0.0)",0.320605457,0.090917967,9.776074409,"(0.0, 0.0, 0.0, 0.0, 0.0, 0.0, 0.0, 0.0, 0.0)"
2024/07/10/17:00:53.912599,15558,1700604938,89426880,,0.521850586,-1.900634766,-3.087158203,0,"(0.0, 0.0, 0.0, 0.0, 0.0, 0.0, 0.0, 0.0, 0.0)",0,0,0,"(0.0, 0.0, 0.0, 0.0, 0.0, 0.0, 0.0, 0.0, 0.0)",0.330175787,0.090917967,9.780858994,"(0.0, 0.0, 0.0, 0.0, 0.0, 0.0, 0.0, 0.0, 0.0)"
2024/07/10/17:00:54.011819,15559,1700604938,188948840,,0.521850586,-1.900634766,-3.087158203,0,"(0.0, 0.0, 0.0, 0.0, 0.0, 0.0, 0.0, 0.0, 0.0)",0,0,0,"(0.0, 0.0, 0.0, 0.0, 0.0, 0.0, 0.0, 0.0, 0.0)",0.315820307,0.090917967,9.776074409,"(0.0, 0.0, 0.0, 0.0, 0.0, 0.0, 0.0, 0.0, 0.0)"
2024/07/10/17:00:54.111425,15560,1700604938,288613447,,0.521850586,-1.900634766,-3.087158203,0,"(0.0, 0.0, 0.0, 0.0, 0.0, 0.0, 0.0, 0.0, 0.0)",0,0,0,"(0.0, 0.0, 0.0, 0.0, 0.0, 0.0, 0.0, 0.0, 0.0)",0.320605457,0.090917967,9.785644531,"(0.0, 0.0, 0.0, 0.0, 0.0, 0.0, 0.0, 0.0, 0.0)"
2024/07/10/17:00:54.213223,15561,1700604938,388250462,,0.521850586,-1.900634766,-3.087158203,0,"(0.0, 0.0, 0.0, 0.0, 0.0, 0.0, 0.0, 0.0, 0.0)",0,0,0,"(0.0, 0.0, 0.0, 0.0, 0.0, 0.0, 0.0, 0.0, 0.0)",0.325390637,0.08613281,9.776074409,"(0.0, 0.0, 0.0, 0.0, 0.0, 0.0, 0.0, 0.0, 0.0)"
2024/07/10/17:00:54.313957,15562,1700604938,487916328,,0.521850586,-1.900634766,-3.087158203,0,"(0.0, 0.0, 0.0, 0.0, 0.0, 0.0, 0.0, 0.0, 0.0)",0,0,0,"(0.0, 0.0, 0.0, 0.0, 0.0, 0.0, 0.0, 0.0, 0.0)",0.320605457,0.08613281,9.780858994,"(0.0, 0.0, 0.0, 0.0, 0.0, 0.0, 0.0, 0.0, 0.0)"
2024/07/10/17:00:54.411103,15563,1700604938,587540620,,0.521850586,-1.900634766,-3.087158203,0,"(0.0, 0.0, 0.0, 0.0, 0.0, 0.0, 0.0, 0.0, 0.0)",0,0,0,"(0.0, 0.0, 0.0, 0.0, 0.0, 0.0, 0.0, 0.0, 0.0)",0.325390637,0.081347659,9.785644531,"(0.0, 0.0, 0.0, 0.0, 0.0, 0.0, 0.0, 0.0, 0.0)"
2024/07/10/17:00:54.510099,15564,1700604938,687189098,,0.521850586,-1.900634766,-3.087158203,0,"(0.0, 0.0, 0.0, 0.0, 0.0, 0.0, 0.0, 0.0, 0.0)",0,0,0,"(0.0, 0.0, 0.0, 0.0, 0.0, 0.0, 0.0, 0.0, 0.0)",0.320605457,0.08613281,9.780858994,"(0.0, 0.0, 0.0, 0.0, 0.0, 0.0, 0.0, 0.0, 0.0)"
2024/07/10/17:00:54.609693,15565,1700604938,786851575,,0.521850586,-1.900634766,-3.087158203,0,"(0.0, 0.0, 0.0, 0.0, 0.0, 0.0, 0.0, 0.0, 0.0)",0,0,0,"(0.0, 0.0, 0.0, 0.0, 0.0, 0.0, 0.0, 0.0, 0.0)",0.330175787,0.090917967,9.776074409,"(0.0, 0.0, 0.0, 0.0, 0.0, 0.0, 0.0, 0.0, 0.0)"
2024/07/10/17:00:54.709427,15566,1700604938,886582885,,0.521850586,-1.900634766,-3.087158203,0,"(0.0, 0.0, 0.0, 0.0, 0.0, 0.0, 0.0, 0.0, 0.0)",0,0,0,"(0.0, 0.0, 0.0, 0.0, 0.0, 0.0, 0.0, 0.0, 0.0)",0.325390637,0.081347659,9.776074409,"(0.0, 0.0, 0.0, 0.0, 0.0, 0.0, 0.0, 0.0, 0.0)"
2024/07/10/17:00:54.808980,15567,1700604938,986147178,,0.521850586,-1.900634766,-3.087158203,0,"(0.0, 0.0, 0.0, 0.0, 0.0, 0.0, 0.0, 0.0, 0.0)",0,0,0,"(0.0, 0.0, 0.0, 0.0, 0.0, 0.0, 0.0, 0.0, 0.0)",0.320605457,0.090917967,9.780858994,"(0.0, 0.0, 0.0, 0.0, 0.0, 0.0, 0.0, 0.0, 0.0)"
2024/07/10/17:00:54.908543,15568,1700604939,85819025,,0.521850586,-1.900634766,-3.087158203,0,"(0.0, 0.0, 0.0, 0.0, 0.0, 0.0, 0.0, 0.0, 0.0)",0,0,0,"(0.0, 0.0, 0.0, 0.0, 0.0, 0.0, 0.0, 0.0, 0.0)",0.320605457,0.081347659,9.776074409,"(0.0, 0.0, 0.0, 0.0, 0.0, 0.0, 0.0, 0.0, 0.0)"
2024/07/10/17:00:55.008433,15569,1700604939,185583835,,0.521850586,-1.900634766,-3.087158203,0,"(0.0, 0.0, 0.0, 0.0, 0.0, 0.0, 0.0, 0.0, 0.0)",0,0,0,"(0.0, 0.0, 0.0, 0.0, 0.0, 0.0, 0.0, 0.0, 0.0)",0.320605457,0.081347659,9.785644531,"(0.0, 0.0, 0.0, 0.0, 0.0, 0.0, 0.0, 0.0, 0.0)"
2024/07/10/17:00:55.107938,15570,1700604939,285104258,,0.521850586,-1.900634766,-3.087158203,0,"(0.0, 0.0, 0.0, 0.0, 0.0, 0.0, 0.0, 0.0, 0.0)",0,0,0,"(0.0, 0.0, 0.0, 0.0, 0.0, 0.0, 0.0, 0.0, 0.0)",0.325390637,0.090917967,9.785644531,"(0.0, 0.0, 0.0, 0.0, 0.0, 0.0, 0.0, 0.0, 0.0)"
2024/07/10/17:00:55.207027,15571,1700604939,384760050,,0.521850586,-1.900634766,-3.087158203,0,"(0.0, 0.0, 0.0, 0.0, 0.0, 0.0, 0.0, 0.0, 0.0)",0,0,0,"(0.0, 0.0, 0.0, 0.0, 0.0, 0.0, 0.0, 0.0, 0.0)",0.325390637,0.08613281,9.790430069,"(0.0, 0.0, 0.0, 0.0, 0.0, 0.0, 0.0, 0.0, 0.0)"
2024/07/10/17:00:55.308545,15572,1700604939,484374621,,0.521850586,-1.900634766,-3.087158203,0,"(0.0, 0.0, 0.0, 0.0, 0.0, 0.0, 0.0, 0.0, 0.0)",0,0,0,"(0.0, 0.0, 0.0, 0.0, 0.0, 0.0, 0.0, 0.0, 0.0)",0.320605457,0.090917967,9.790430069,"(0.0, 0.0, 0.0, 0.0, 0.0, 0.0, 0.0, 0.0, 0.0)"
2024/07/10/17:00:55.407482,15573,1700604939,584048357,,0.521850586,-1.900634766,-3.087158203,0,"(0.0, 0.0, 0.0, 0.0, 0.0, 0.0, 0.0, 0.0, 0.0)",0,0,0,"(0.0, 0.0, 0.0, 0.0, 0.0, 0.0, 0.0, 0.0, 0.0)",0.320605457,0.090917967,9.780858994,"(0.0, 0.0, 0.0, 0.0, 0.0, 0.0, 0.0, 0.0, 0.0)"
2024/07/10/17:00:55.506542,15574,1700604939,683728112,,0.521850586,-1.900634766,-3.087158203,0,"(0.0, 0.0, 0.0, 0.0, 0.0, 0.0, 0.0, 0.0, 0.0)",0,0,0,"(0.0, 0.0, 0.0, 0.0, 0.0, 0.0, 0.0, 0.0, 0.0)",0.330175787,0.08613281,9.780858994,"(0.0, 0.0, 0.0, 0.0, 0.0, 0.0, 0.0, 0.0, 0.0)"
2024/07/10/17:00:55.606558,15575,1700604939,783328034,,0.521850586,-1.900634766,-3.087158203,0,"(0.0, 0.0, 0.0, 0.0, 0.0, 0.0, 0.0, 0.0, 0.0)",0,0,0,"(0.0, 0.0, 0.0, 0.0, 0.0, 0.0, 0.0, 0.0, 0.0)",0.320605457,0.095703125,9.780858994,"(0.0, 0.0, 0.0, 0.0, 0.0, 0.0, 0.0, 0.0, 0.0)"
2024/07/10/17:00:55.705780,15576,1700604939,882990567,,0.521850586,-1.900634766,-3.087158203,0,"(0.0, 0.0, 0.0, 0.0, 0.0, 0.0, 0.0, 0.0, 0.0)",0,0,0,"(0.0, 0.0, 0.0, 0.0, 0.0, 0.0, 0.0, 0.0, 0.0)",0.325390637,0.08613281,9.780858994,"(0.0, 0.0, 0.0, 0.0, 0.0, 0.0, 0.0, 0.0, 0.0)"
2024/07/10/17:00:55.811420,15577,1700604939,982762895,,0.521850586,-1.900634766,-3.087158203,0,"(0.0, 0.0, 0.0, 0.0, 0.0, 0.0, 0.0, 0.0, 0.0)",0,0,0,"(0.0, 0.0, 0.0, 0.0, 0.0, 0.0, 0.0, 0.0, 0.0)",0.320605457,0.08613281,9.776074409,"(0.0, 0.0, 0.0, 0.0, 0.0, 0.0, 0.0, 0.0, 0.0)"
2024/07/10/17:00:55.914710,15578,1700604940,82278578,,0.521850586,-1.900634766,-3.087158203,0,"(0.0, 0.0, 0.0, 0.0, 0.0, 0.0, 0.0, 0.0, 0.0)",0,0,0,"(0.0, 0.0, 0.0, 0.0, 0.0, 0.0, 0.0, 0.0, 0.0)",0.320605457,0.081347659,9.785644531,"(0.0, 0.0, 0.0, 0.0, 0.0, 0.0, 0.0, 0.0, 0.0)"
2024/07/10/17:00:56.006667,15579,1700604940,181937055,,0.521850586,-1.900634766,-3.087158203,0,"(0.0, 0.0, 0.0, 0.0, 0.0, 0.0, 0.0, 0.0, 0.0)",0,0,0,"(0.0, 0.0, 0.0, 0.0, 0.0, 0.0, 0.0, 0.0, 0.0)",0.325390637,0.08613281,9.776074409,"(0.0, 0.0, 0.0, 0.0, 0.0, 0.0, 0.0, 0.0, 0.0)"
2024/07/10/17:00:56.107364,15580,1700604940,281735475,,0.521850586,-1.900634766,-3.087158203,0,"(0.0, 0.0, 0.0, 0.0, 0.0, 0.0, 0.0, 0.0, 0.0)",0,0,0,"(0.0, 0.0, 0.0, 0.0, 0.0, 0.0, 0.0, 0.0, 0.0)",0.320605457,0.090917967,9.776074409,"(0.0, 0.0, 0.0, 0.0, 0.0, 0.0, 0.0, 0.0, 0.0)"
2024/07/10/17:00:56.204045,15581,1700604940,381224695,,0.521850586,-1.900634766,-3.087158203,0,"(0.0, 0.0, 0.0, 0.0, 0.0, 0.0, 0.0, 0.0, 0.0)",0,0,0,"(0.0, 0.0, 0.0, 0.0, 0.0, 0.0, 0.0, 0.0, 0.0)",0.330175787,0.08613281,9.790430069,"(0.0, 0.0, 0.0, 0.0, 0.0, 0.0, 0.0, 0.0, 0.0)"
2024/07/10/17:00:56.304604,15582,1700604940,480860802,,0.521850586,-1.90612793,-3.087158203,0,"(0.0, 0.0, 0.0, 0.0, 0.0, 0.0, 0.0, 0.0, 0.0)",0,0,0,"(0.0, 0.0, 0.0, 0.0, 0.0, 0.0, 0.0, 0.0, 0.0)",0.325390637,0.081347659,9.780858994,"(0.0, 0.0, 0.0, 0.0, 0.0, 0.0, 0.0, 0.0, 0.0)"
2024/07/10/17:00:56.402864,15583,1700604940,580525816,,0.521850586,-1.90612793,-3.087158203,0,"(0.0, 0.0, 0.0, 0.0, 0.0, 0.0, 0.0, 0.0, 0.0)",0,0,0,"(0.0, 0.0, 0.0, 0.0, 0.0, 0.0, 0.0, 0.0, 0.0)",0.325390637,0.08613281,9.785644531,"(0.0, 0.0, 0.0, 0.0, 0.0, 0.0, 0.0, 0.0, 0.0)"
2024/07/10/17:00:56.502663,15584,1700604940,680152127,,0.521850586,-1.90612793,-3.087158203,0,"(0.0, 0.0, 0.0, 0.0, 0.0, 0.0, 0.0, 0.0, 0.0)",0,0,0,"(0.0, 0.0, 0.0, 0.0, 0.0, 0.0, 0.0, 0.0, 0.0)",0.325390637,0.08613281,9.780858994,"(0.0, 0.0, 0.0, 0.0, 0.0, 0.0, 0.0, 0.0, 0.0)"
2024/07/10/17:00:56.603233,15585,1700604940,779853826,,0.521850586,-1.90612793,-3.087158203,0,"(0.0, 0.0, 0.0, 0.0, 0.0, 0.0, 0.0, 0.0, 0.0)",0,0,0,"(0.0, 0.0, 0.0, 0.0, 0.0, 0.0, 0.0, 0.0, 0.0)",0.320605457,0.090917967,9.790430069,"(0.0, 0.0, 0.0, 0.0, 0.0, 0.0, 0.0, 0.0, 0.0)"
2024/07/10/17:00:56.705238,15586,1700604940,879428897,,0.521850586,-1.90612793,-3.087158203,0,"(0.0, 0.0, 0.0, 0.0, 0.0, 0.0, 0.0, 0.0, 0.0)",0,0,0,"(0.0, 0.0, 0.0, 0.0, 0.0, 0.0, 0.0, 0.0, 0.0)",0.325390637,0.081347659,9.790430069,"(0.0, 0.0, 0.0, 0.0, 0.0, 0.0, 0.0, 0.0, 0.0)"
2024/07/10/17:00:56.802786,15587,1700604940,979099541,,0.521850586,-1.90612793,-3.087158203,0,"(0.0, 0.0, 0.0, 0.0, 0.0, 0.0, 0.0, 0.0, 0.0)",0,0,0,"(0.0, 0.0, 0.0, 0.0, 0.0, 0.0, 0.0, 0.0, 0.0)",0.325390637,0.081347659,9.785644531,"(0.0, 0.0, 0.0, 0.0, 0.0, 0.0, 0.0, 0.0, 0.0)"
2024/07/10/17:00:56.901949,15588,1700604941,78883239,,0.521850586,-1.90612793,-3.087158203,0,"(0.0, 0.0, 0.0, 0.0, 0.0, 0.0, 0.0, 0.0, 0.0)",0,0,0,"(0.0, 0.0, 0.0, 0.0, 0.0, 0.0, 0.0, 0.0, 0.0)",0.325390637,0.090917967,9.785644531,"(0.0, 0.0, 0.0, 0.0, 0.0, 0.0, 0.0, 0.0, 0.0)"
2024/07/10/17:00:57.001162,15589,1700604941,178357959,,0.521850586,-1.90612793,-3.087158203,0,"(0.0, 0.0, 0.0, 0.0, 0.0, 0.0, 0.0, 0.0, 0.0)",0,0,0,"(0.0, 0.0, 0.0, 0.0, 0.0, 0.0, 0.0, 0.0, 0.0)",0.330175787,0.090917967,9.780858994,"(0.0, 0.0, 0.0, 0.0, 0.0, 0.0, 0.0, 0.0, 0.0)"
2024/07/10/17:00:57.100822,15590,1700604941,277985603,,0.521850586,-1.90612793,-3.087158203,0,"(0.0, 0.0, 0.0, 0.0, 0.0, 0.0, 0.0, 0.0, 0.0)",0,0,0,"(0.0, 0.0, 0.0, 0.0, 0.0, 0.0, 0.0, 0.0, 0.0)",0.320605457,0.090917967,9.785644531,"(0.0, 0.0, 0.0, 0.0, 0.0, 0.0, 0.0, 0.0, 0.0)"
2024/07/10/17:00:57.200922,15591,1700604941,377623192,,0.521850586,-1.90612793,-3.087158203,0,"(0.0, 0.0, 0.0, 0.0, 0.0, 0.0, 0.0, 0.0, 0.0)",0,0,0,"(0.0, 0.0, 0.0, 0.0, 0.0, 0.0, 0.0, 0.0, 0.0)",0.325390637,0.081347659,9.780858994,"(0.0, 0.0, 0.0, 0.0, 0.0, 0.0, 0.0, 0.0, 0.0)"
2024/07/10/17:00:57.301738,15592,1700604941,477248929,,0.521850586,-1.90612793,-3.087158203,0,"(0.0, 0.0, 0.0, 0.0, 0.0, 0.0, 0.0, 0.0, 0.0)",0,0,0,"(0.0, 0.0, 0.0, 0.0, 0.0, 0.0, 0.0, 0.0, 0.0)",0.325390637,0.090917967,9.780858994,"(0.0, 0.0, 0.0, 0.0, 0.0, 0.0, 0.0, 0.0, 0.0)"
2024/07/10/17:00:57.400206,15593,1700604941,576996572,,0.521850586,-1.90612793,-3.087158203,0,"(0.0, 0.0, 0.0, 0.0, 0.0, 0.0, 0.0, 0.0, 0.0)",0,0,0,"(0.0, 0.0, 0.0, 0.0, 0.0, 0.0, 0.0, 0.0, 0.0)",0.330175787,0.090917967,9.785644531,"(0.0, 0.0, 0.0, 0.0, 0.0, 0.0, 0.0, 0.0, 0.0)"
2024/07/10/17:00:57.499385,15594,1700604941,676553458,,0.521850586,-1.90612793,-3.087158203,0,"(0.0, 0.0, 0.0, 0.0, 0.0, 0.0, 0.0, 0.0, 0.0)",0,0,0,"(0.0, 0.0, 0.0, 0.0, 0.0, 0.0, 0.0, 0.0, 0.0)",0.315820307,0.08613281,9.785644531,"(0.0, 0.0, 0.0, 0.0, 0.0, 0.0, 0.0, 0.0, 0.0)"
2024/07/10/17:00:57.599102,15595,1700604941,776214028,,0.521850586,-1.90612793,-3.087158203,0,"(0.0, 0.0, 0.0, 0.0, 0.0, 0.0, 0.0, 0.0, 0.0)",0,0,0,"(0.0, 0.0, 0.0, 0.0, 0.0, 0.0, 0.0, 0.0, 0.0)",0.325390637,0.090917967,9.776074409,"(0.0, 0.0, 0.0, 0.0, 0.0, 0.0, 0.0, 0.0, 0.0)"
2024/07/10/17:00:57.698759,15596,1700604941,875957430,,0.521850586,-1.90612793,-3.087158203,0,"(0.0, 0.0, 0.0, 0.0, 0.0, 0.0, 0.0, 0.0, 0.0)",0,0,0,"(0.0, 0.0, 0.0, 0.0, 0.0, 0.0, 0.0, 0.0, 0.0)",0.325390637,0.095703125,9.780858994,"(0.0, 0.0, 0.0, 0.0, 0.0, 0.0, 0.0, 0.0, 0.0)"
2024/07/10/17:00:57.798221,15597,1700604941,975466779,,0.521850586,-1.90612793,-3.087158203,0,"(0.0, 0.0, 0.0, 0.0, 0.0, 0.0, 0.0, 0.0, 0.0)",0,0,0,"(0.0, 0.0, 0.0, 0.0, 0.0, 0.0, 0.0, 0.0, 0.0)",0.320605457,0.08613281,9.780858994,"(0.0, 0.0, 0.0, 0.0, 0.0, 0.0, 0.0, 0.0, 0.0)"
2024/07/10/17:00:57.898154,15598,1700604942,75101016,,0.521850586,-1.90612793,-3.087158203,0,"(0.0, 0.0, 0.0, 0.0, 0.0, 0.0, 0.0, 0.0, 0.0)",0,0,0,"(0.0, 0.0, 0.0, 0.0, 0.0, 0.0, 0.0, 0.0, 0.0)",0.320605457,0.08613281,9.785644531,"(0.0, 0.0, 0.0, 0.0, 0.0, 0.0, 0.0, 0.0, 0.0)"
2024/07/10/17:00:57.998142,15599,1700604942,174728160,,0.521850586,-1.90612793,-3.087158203,0,"(0.0, 0.0, 0.0, 0.0, 0.0, 0.0, 0.0, 0.0, 0.0)",0,0,0,"(0.0, 0.0, 0.0, 0.0, 0.0, 0.0, 0.0, 0.0, 0.0)",0.320605457,0.08613281,9.771288872,"(0.0, 0.0, 0.0, 0.0, 0.0, 0.0, 0.0, 0.0, 0.0)"
2024/07/10/17:00:58.097227,15600,1700604942,274379878,,0.521850586,-1.90612793,-3.087158203,0,"(0.0, 0.0, 0.0, 0.0, 0.0, 0.0, 0.0, 0.0, 0.0)",0,0,0,"(0.0, 0.0, 0.0, 0.0, 0.0, 0.0, 0.0, 0.0, 0.0)",0.330175787,0.090917967,9.766504288,"(0.0, 0.0, 0.0, 0.0, 0.0, 0.0, 0.0, 0.0, 0.0)"
2024/07/10/17:00:58.207344,15601,1700604942,374088392,,0.521850586,-1.90612793,-3.087158203,0,"(0.0, 0.0, 0.0, 0.0, 0.0, 0.0, 0.0, 0.0, 0.0)",0,0,0,"(0.0, 0.0, 0.0, 0.0, 0.0, 0.0, 0.0, 0.0, 0.0)",0.320605457,0.08613281,9.780858994,"(0.0, 0.0, 0.0, 0.0, 0.0, 0.0, 0.0, 0.0, 0.0)"
2024/07/10/17:00:58.296409,15602,1700604942,473631556,,0.521850586,-1.90612793,-3.087158203,0,"(0.0, 0.0, 0.0, 0.0, 0.0, 0.0, 0.0, 0.0, 0.0)",0,0,0,"(0.0, 0.0, 0.0, 0.0, 0.0, 0.0, 0.0, 0.0, 0.0)",0.320605457,0.081347659,9.780858994,"(0.0, 0.0, 0.0, 0.0, 0.0, 0.0, 0.0, 0.0, 0.0)"
2024/07/10/17:00:58.396087,15603,1700604942,573306052,,0.521850586,-1.90612793,-3.087158203,0,"(0.0, 0.0, 0.0, 0.0, 0.0, 0.0, 0.0, 0.0, 0.0)",0,0,0,"(0.0, 0.0, 0.0, 0.0, 0.0, 0.0, 0.0, 0.0, 0.0)",0.325390637,0.08613281,9.785644531,"(0.0, 0.0, 0.0, 0.0, 0.0, 0.0, 0.0, 0.0, 0.0)"
2024/07/10/17:00:58.498869,15604,1700604942,673060232,,0.521850586,-1.90612793,-3.087158203,0,"(0.0, 0.0, 0.0, 0.0, 0.0, 0.0, 0.0, 0.0, 0.0)",0,0,0,"(0.0, 0.0, 0.0, 0.0, 0.0, 0.0, 0.0, 0.0, 0.0)",0.325390637,0.095703125,9.776074409,"(0.0, 0.0, 0.0, 0.0, 0.0, 0.0, 0.0, 0.0, 0.0)"
2024/07/10/17:00:58.597050,15605,1700604942,772572673,,0.521850586,-1.90612793,-3.087158203,0,"(0.0, 0.0, 0.0, 0.0, 0.0, 0.0, 0.0, 0.0, 0.0)",0,0,0,"(0.0, 0.0, 0.0, 0.0, 0.0, 0.0, 0.0, 0.0, 0.0)",0.320605457,0.081347659,9.785644531,"(0.0, 0.0, 0.0, 0.0, 0.0, 0.0, 0.0, 0.0, 0.0)"
2024/07/10/17:00:58.695040,15606,1700604942,872216688,,0.521850586,-1.90612793,-3.087158203,0,"(0.0, 0.0, 0.0, 0.0, 0.0, 0.0, 0.0, 0.0, 0.0)",0,0,0,"(0.0, 0.0, 0.0, 0.0, 0.0, 0.0, 0.0, 0.0, 0.0)",0.320605457,0.08613281,9.780858994,"(0.0, 0.0, 0.0, 0.0, 0.0, 0.0, 0.0, 0.0, 0.0)"
2024/07/10/17:00:58.794454,15607,1700604942,971854406,,0.521850586,-1.90612793,-3.087158203,0,"(0.0, 0.0, 0.0, 0.0, 0.0, 0.0, 0.0, 0.0, 0.0)",0,0,0,"(0.0, 0.0, 0.0, 0.0, 0.0, 0.0, 0.0, 0.0, 0.0)",0.325390637,0.095703125,9.776074409,"(0.0, 0.0, 0.0, 0.0, 0.0, 0.0, 0.0, 0.0, 0.0)"
2024/07/10/17:00:58.894145,15608,1700604943,71518383,,0.521850586,-1.90612793,-3.087158203,0,"(0.0, 0.0, 0.0, 0.0, 0.0, 0.0, 0.0, 0.0, 0.0)",0,0,0,"(0.0, 0.0, 0.0, 0.0, 0.0, 0.0, 0.0, 0.0, 0.0)",0.330175787,0.08613281,9.790430069,"(0.0, 0.0, 0.0, 0.0, 0.0, 0.0, 0.0, 0.0, 0.0)"
2024/07/10/17:00:58.996730,15609,1700604943,171191861,,0.521850586,-1.90612793,-3.087158203,0,"(0.0, 0.0, 0.0, 0.0, 0.0, 0.0, 0.0, 0.0, 0.0)",0,0,0,"(0.0, 0.0, 0.0, 0.0, 0.0, 0.0, 0.0, 0.0, 0.0)",0.320605457,0.090917967,9.785644531,"(0.0, 0.0, 0.0, 0.0, 0.0, 0.0, 0.0, 0.0, 0.0)"
2024/07/10/17:00:59.097168,15610,1700604943,270810894,,0.521850586,-1.90612793,-3.087158203,0,"(0.0, 0.0, 0.0, 0.0, 0.0, 0.0, 0.0, 0.0, 0.0)",0,0,0,"(0.0, 0.0, 0.0, 0.0, 0.0, 0.0, 0.0, 0.0, 0.0)",0.330175787,0.08613281,9.776074409,"(0.0, 0.0, 0.0, 0.0, 0.0, 0.0, 0.0, 0.0, 0.0)"
2024/07/10/17:00:59.193745,15611,1700604943,370421723,,0.521850586,-1.90612793,-3.087158203,0,"(0.0, 0.0, 0.0, 0.0, 0.0, 0.0, 0.0, 0.0, 0.0)",0,0,0,"(0.0, 0.0, 0.0, 0.0, 0.0, 0.0, 0.0, 0.0, 0.0)",0.320605457,0.090917967,9.780858994,"(0.0, 0.0, 0.0, 0.0, 0.0, 0.0, 0.0, 0.0, 0.0)"
2024/07/10/17:00:59.293323,15612,1700604943,470209792,,0.521850586,-1.90612793,-3.087158203,0,"(0.0, 0.0, 0.0, 0.0, 0.0, 0.0, 0.0, 0.0, 0.0)",0,0,0,"(0.0, 0.0, 0.0, 0.0, 0.0, 0.0, 0.0, 0.0, 0.0)",0.320605457,0.08613281,9.785644531,"(0.0, 0.0, 0.0, 0.0, 0.0, 0.0, 0.0, 0.0, 0.0)"
2024/07/10/17:00:59.393666,15613,1700604943,569717919,,0.521850586,-1.90612793,-3.087158203,0,"(0.0, 0.0, 0.0, 0.0, 0.0, 0.0, 0.0, 0.0, 0.0)",0,0,0,"(0.0, 0.0, 0.0, 0.0, 0.0, 0.0, 0.0, 0.0, 0.0)",0.330175787,0.090917967,9.785644531,"(0.0, 0.0, 0.0, 0.0, 0.0, 0.0, 0.0, 0.0, 0.0)"
2024/07/10/17:00:59.494333,15614,1700604943,669387007,,0.521850586,-1.90612793,-3.087158203,0,"(0.0, 0.0, 0.0, 0.0, 0.0, 0.0, 0.0, 0.0, 0.0)",0,0,0,"(0.0, 0.0, 0.0, 0.0, 0.0, 0.0, 0.0, 0.0, 0.0)",0.325390637,0.090917967,9.780858994,"(0.0, 0.0, 0.0, 0.0, 0.0, 0.0, 0.0, 0.0, 0.0)"
2024/07/10/17:00:59.593379,15615,1700604943,769209261,,0.521850586,-1.90612793,-3.087158203,0,"(0.0, 0.0, 0.0, 0.0, 0.0, 0.0, 0.0, 0.0, 0.0)",0,0,0,"(0.0, 0.0, 0.0, 0.0, 0.0, 0.0, 0.0, 0.0, 0.0)",0.320605457,0.090917967,9.780858994,"(0.0, 0.0, 0.0, 0.0, 0.0, 0.0, 0.0, 0.0, 0.0)"
2024/07/10/17:00:59.696544,15616,1700604943,868658462,,0.521850586,-1.90612793,-3.087158203,0,"(0.0, 0.0, 0.0, 0.0, 0.0, 0.0, 0.0, 0.0, 0.0)",0,0,0,"(0.0, 0.0, 0.0, 0.0, 0.0, 0.0, 0.0, 0.0, 0.0)",0.320605457,0.090917967,9.780858994,"(0.0, 0.0, 0.0, 0.0, 0.0, 0.0, 0.0, 0.0, 0.0)"
2024/07/10/17:00:59.793872,15617,1700604943,968363439,,0.521850586,-1.90612793,-3.087158203,0,"(0.0, 0.0, 0.0, 0.0, 0.0, 0.0, 0.0, 0.0, 0.0)",0,0,0,"(0.0, 0.0, 0.0, 0.0, 0.0, 0.0, 0.0, 0.0, 0.0)",0.320605457,0.081347659,9.780858994,"(0.0, 0.0, 0.0, 0.0, 0.0, 0.0, 0.0, 0.0, 0.0)"
2024/07/10/17:00:59.893197,15618,1700604944,67950399,,0.521850586,-1.90612793,-3.087158203,0,"(0.0, 0.0, 0.0, 0.0, 0.0, 0.0, 0.0, 0.0, 0.0)",0,0,0,"(0.0, 0.0, 0.0, 0.0, 0.0, 0.0, 0.0, 0.0, 0.0)",0.320605457,0.08613281,9.780858994,"(0.0, 0.0, 0.0, 0.0, 0.0, 0.0, 0.0, 0.0, 0.0)"
2024/07/10/17:00:59.993352,15619,1700604944,167582765,,0.521850586,-1.90612793,-3.087158203,0,"(0.0, 0.0, 0.0, 0.0, 0.0, 0.0, 0.0, 0.0, 0.0)",0,0,0,"(0.0, 0.0, 0.0, 0.0, 0.0, 0.0, 0.0, 0.0, 0.0)",0.320605457,0.081347659,9.785644531,"(0.0, 0.0, 0.0, 0.0, 0.0, 0.0, 0.0, 0.0, 0.0)"
2024/07/10/17:01:00.090222,15620,1700604944,267321279,,0.521850586,-1.90612793,-3.087158203,0,"(0.0, 0.0, 0.0, 0.0, 0.0, 0.0, 0.0, 0.0, 0.0)",0,0,0,"(0.0, 0.0, 0.0, 0.0, 0.0, 0.0, 0.0, 0.0, 0.0)",0.320605457,0.08613281,9.780858994,"(0.0, 0.0, 0.0, 0.0, 0.0, 0.0, 0.0, 0.0, 0.0)"
2024/07/10/17:01:00.189683,15621,1700604944,366898294,,0.521850586,-1.90612793,-3.087158203,0,"(0.0, 0.0, 0.0, 0.0, 0.0, 0.0, 0.0, 0.0, 0.0)",0,0,0,"(0.0, 0.0, 0.0, 0.0, 0.0, 0.0, 0.0, 0.0, 0.0)",0.325390637,0.081347659,9.785644531,"(0.0, 0.0, 0.0, 0.0, 0.0, 0.0, 0.0, 0.0, 0.0)"
2024/07/10/17:01:00.289393,15622,1700604944,466555697,,0.521850586,-1.90612793,-3.087158203,0,"(0.0, 0.0, 0.0, 0.0, 0.0, 0.0, 0.0, 0.0, 0.0)",0,0,0,"(0.0, 0.0, 0.0, 0.0, 0.0, 0.0, 0.0, 0.0, 0.0)",0.320605457,0.08613281,9.785644531,"(0.0, 0.0, 0.0, 0.0, 0.0, 0.0, 0.0, 0.0, 0.0)"
2024/07/10/17:01:00.388901,15623,1700604944,566319470,,0.521850586,-1.90612793,-3.087158203,0,"(0.0, 0.0, 0.0, 0.0, 0.0, 0.0, 0.0, 0.0, 0.0)",0,0,0,"(0.0, 0.0, 0.0, 0.0, 0.0, 0.0, 0.0, 0.0, 0.0)",0.315820307,0.08613281,9.790430069,"(0.0, 0.0, 0.0, 0.0, 0.0, 0.0, 0.0, 0.0, 0.0)"
2024/07/10/17:01:00.488721,15624,1700604944,665821152,,0.521850586,-1.90612793,-3.087158203,0,"(0.0, 0.0, 0.0, 0.0, 0.0, 0.0, 0.0, 0.0, 0.0)",0,0,0,"(0.0, 0.0, 0.0, 0.0, 0.0, 0.0, 0.0, 0.0, 0.0)",0.320605457,0.08613281,9.776074409,"(0.0, 0.0, 0.0, 0.0, 0.0, 0.0, 0.0, 0.0, 0.0)"
2024/07/10/17:01:00.588343,15625,1700604944,765473574,,0.521850586,-1.90612793,-3.087158203,0,"(0.0, 0.0, 0.0, 0.0, 0.0, 0.0, 0.0, 0.0, 0.0)",0,0,0,"(0.0, 0.0, 0.0, 0.0, 0.0, 0.0, 0.0, 0.0, 0.0)",0.330175787,0.08613281,9.780858994,"(0.0, 0.0, 0.0, 0.0, 0.0, 0.0, 0.0, 0.0, 0.0)"
2024/07/10/17:01:00.696033,15626,1700604944,865115422,,0.521850586,-1.90612793,-3.087158203,0,"(0.0, 0.0, 0.0, 0.0, 0.0, 0.0, 0.0, 0.0, 0.0)",0,0,0,"(0.0, 0.0, 0.0, 0.0, 0.0, 0.0, 0.0, 0.0, 0.0)",0.325390637,0.090917967,9.785644531,"(0.0, 0.0, 0.0, 0.0, 0.0, 0.0, 0.0, 0.0, 0.0)"
2024/07/10/17:01:00.821939,15627,1700604944,997472366,,0.521850586,-1.90612793,-3.087158203,0,"(0.0, 0.0, 0.0, 0.0, 0.0, 0.0, 0.0, 0.0, 0.0)",0,0,0,"(0.0, 0.0, 0.0, 0.0, 0.0, 0.0, 0.0, 0.0, 0.0)",0.325390637,0.08613281,9.785644531,"(0.0, 0.0, 0.0, 0.0, 0.0, 0.0, 0.0, 0.0, 0.0)"
2024/07/10/17:01:00.920055,15628,1700604945,97393730,,0.714111328,-1.977539063,-3.889160156,0,"(0.0, 0.0, 0.0, 0.0, 0.0, 0.0, 0.0, 0.0, 0.0)",1.037597656,-1.220703125,-18.18847656,"(0.0, 0.0, 0.0, 0.0, 0.0, 0.0, 0.0, 0.0, 0.0)",-1.823144555,1.167578101,10.41250038,"(0.0, 0.0, 0.0, 0.0, 0.0, 0.0, 0.0, 0.0, 0.0)"
2024/07/10/17:01:01.022400,15629,1700604945,196965134,,0.977783203,-1.972045898,-4.850463867,0,"(0.0, 0.0, 0.0, 0.0, 0.0, 0.0, 0.0, 0.0, 0.0)",0,-0.48828125,-6.958007813,"(0.0, 0.0, 0.0, 0.0, 0.0, 0.0, 0.0, 0.0, 0.0)",0.358886719,0.799121082,9.560742378,"(0.0, 0.0, 0.0, 0.0, 0.0, 0.0, 0.0, 0.0, 0.0)"
2024/07/10/17:01:01.119635,15630,1700604945,296700740,,1.148071289,-1.944580078,-5.405273438,0,"(0.0, 0.0, 0.0, 0.0, 0.0, 0.0, 0.0, 0.0, 0.0)",0.061035156,0.061035156,-3.601074219,"(0.0, 0.0, 0.0, 0.0, 0.0, 0.0, 0.0, 0.0, 0.0)",-0.009570313,0.416308582,9.905273438,"(0.0, 0.0, 0.0, 0.0, 0.0, 0.0, 0.0, 0.0, 0.0)"
2024/07/10/17:01:01.221195,15631,1700604945,396445550,,1.23046875,-1.90612793,-5.641479492,0,"(0.0, 0.0, 0.0, 0.0, 0.0, 0.0, 0.0, 0.0, 0.0)",-0.122070313,0,-2.197265625,"(0.0, 0.0, 0.0, 0.0, 0.0, 0.0, 0.0, 0.0, 0.0)",0.244042963,0.114843749,9.804784775,"(0.0, 0.0, 0.0, 0.0, 0.0, 0.0, 0.0, 0.0, 0.0)"
2024/07/10/17:01:01.318472,15632,1700604945,495908936,,1.219482422,-1.878662109,-5.855712891,0,"(0.0, 0.0, 0.0, 0.0, 0.0, 0.0, 0.0, 0.0, 0.0)",-0.854492188,0.244140625,-2.624511719,"(0.0, 0.0, 0.0, 0.0, 0.0, 0.0, 0.0, 0.0, 0.0)",0.258398443,-0.038281251,10.20195293,"(0.0, 0.0, 0.0, 0.0, 0.0, 0.0, 0.0, 0.0, 0.0)"
2024/07/10/17:01:01.418075,15633,1700604945,595574506,,1.186523438,-1.873168945,-6.00402832,0,"(0.0, 0.0, 0.0, 0.0, 0.0, 0.0, 0.0, 0.0, 0.0)",0,-0.244140625,-0.183105469,"(0.0, 0.0, 0.0, 0.0, 0.0, 0.0, 0.0, 0.0, 0.0)",0.258398443,-0.090917967,9.70908165,"(0.0, 0.0, 0.0, 0.0, 0.0, 0.0, 0.0, 0.0, 0.0)"
2024/07/10/17:01:01.518058,15634,1700604945,695188503,,1.065673828,-1.878662109,-5.982055664,0,"(0.0, 0.0, 0.0, 0.0, 0.0, 0.0, 0.0, 0.0, 0.0)",-1.403808594,0,-1.403808594,"(0.0, 0.0, 0.0, 0.0, 0.0, 0.0, 0.0, 0.0, 0.0)",0.344531238,0.129199222,9.780858994,"(0.0, 0.0, 0.0, 0.0, 0.0, 0.0, 0.0, 0.0, 0.0)"
2024/07/10/17:01:01.617355,15635,1700604945,794817184,,0.955810547,-1.917114258,-6.443481445,0,"(0.0, 0.0, 0.0, 0.0, 0.0, 0.0, 0.0, 0.0, 0.0)",-0.48828125,-0.122070313,-5.004882813,"(0.0, 0.0, 0.0, 0.0, 0.0, 0.0, 0.0, 0.0, 0.0)",-0.033496093,-0.081347659,9.575098038,"(0.0, 0.0, 0.0, 0.0, 0.0, 0.0, 0.0, 0.0, 0.0)"
2024/07/10/17:01:01.717589,15636,1700604945,894551957,,0.856933594,-1.928100586,-6.88293457,0,"(0.0, 0.0, 0.0, 0.0, 0.0, 0.0, 0.0, 0.0, 0.0)",-0.122070313,-0.183105469,-4.089355469,"(0.0, 0.0, 0.0, 0.0, 0.0, 0.0, 0.0, 0.0, 0.0)",0.267968744,-0.167480469,9.857421875,"(0.0, 0.0, 0.0, 0.0, 0.0, 0.0, 0.0, 0.0, 0.0)"
2024/07/10/17:01:01.816670,15637,1700604945,994154879,,0.829467773,-1.922607422,-7.201538086,0,"(0.0, 0.0, 0.0, 0.0, 0.0, 0.0, 0.0, 0.0, 0.0)",0,-0.061035156,-2.319335938,"(0.0, 0.0, 0.0, 0.0, 0.0, 0.0, 0.0, 0.0, 0.0)",0.315820307,-0.028710937,9.895703316,"(0.0, 0.0, 0.0, 0.0, 0.0, 0.0, 0.0, 0.0, 0.0)"
2024/07/10/17:01:01.916381,15638,1700604946,93823801,,0.840454102,-1.917114258,-7.459716797,0,"(0.0, 0.0, 0.0, 0.0, 0.0, 0.0, 0.0, 0.0, 0.0)",-0.366210938,0.061035156,-2.563476563,"(0.0, 0.0, 0.0, 0.0, 0.0, 0.0, 0.0, 0.0, 0.0)",0.138769537,-0.114843749,9.996191025,"(0.0, 0.0, 0.0, 0.0, 0.0, 0.0, 0.0, 0.0, 0.0)"
2024/07/10/17:01:02.016068,15639,1700604946,193543259,,0.785522461,-1.917114258,-7.635498047,0,"(0.0, 0.0, 0.0, 0.0, 0.0, 0.0, 0.0, 0.0, 0.0)",-1.281738281,0,-1.342773438,"(0.0, 0.0, 0.0, 0.0, 0.0, 0.0, 0.0, 0.0, 0.0)",0.301464856,0.129199222,9.579882622,"(0.0, 0.0, 0.0, 0.0, 0.0, 0.0, 0.0, 0.0, 0.0)"
2024/07/10/17:01:02.115849,15640,1700604946,293128070,,0.780029297,-1.922607422,-7.805786133,0,"(0.0, 0.0, 0.0, 0.0, 0.0, 0.0, 0.0, 0.0, 0.0)",-1.037597656,-0.122070313,-1.892089844,"(0.0, 0.0, 0.0, 0.0, 0.0, 0.0, 0.0, 0.0, 0.0)",0.291894525,0.267968744,9.819140434,"(0.0, 0.0, 0.0, 0.0, 0.0, 0.0, 0.0, 0.0, 0.0)"
2024/07/10/17:01:02.215494,15641,1700604946,392739567,,0.725097656,-1.922607422,-7.987060547,0,"(0.0, 0.0, 0.0, 0.0, 0.0, 0.0, 0.0, 0.0, 0.0)",-0.549316406,0.061035156,-1.586914063,"(0.0, 0.0, 0.0, 0.0, 0.0, 0.0, 0.0, 0.0, 0.0)",0.344531238,0.076562501,9.924413681,"(0.0, 0.0, 0.0, 0.0, 0.0, 0.0, 0.0, 0.0, 0.0)"
2024/07/10/17:01:02.315670,15642,1700604946,492383877,,0.692138672,-1.922607422,-8.135375977,0,"(0.0, 0.0, 0.0, 0.0, 0.0, 0.0, 0.0, 0.0, 0.0)",-0.366210938,0,-1.708984375,"(0.0, 0.0, 0.0, 0.0, 0.0, 0.0, 0.0, 0.0, 0.0)",0.339746088,0.023925781,9.910058975,"(0.0, 0.0, 0.0, 0.0, 0.0, 0.0, 0.0, 0.0, 0.0)"
2024/07/10/17:01:02.414751,15643,1700604946,592011207,,0.697631836,-1.900634766,-8.256225586,0,"(0.0, 0.0, 0.0, 0.0, 0.0, 0.0, 0.0, 0.0, 0.0)",0.427246094,0.244140625,-0.549316406,"(0.0, 0.0, 0.0, 0.0, 0.0, 0.0, 0.0, 0.0, 0.0)",0.157910153,0.100488283,9.785644531,"(0.0, 0.0, 0.0, 0.0, 0.0, 0.0, 0.0, 0.0, 0.0)"
2024/07/10/17:01:02.514256,15644,1700604946,691673962,,0.719604492,-1.884155273,-8.294677734,0,"(0.0, 0.0, 0.0, 0.0, 0.0, 0.0, 0.0, 0.0, 0.0)",0.122070313,-0.122070313,-1.342773438,"(0.0, 0.0, 0.0, 0.0, 0.0, 0.0, 0.0, 0.0, 0.0)",0.344531238,0.1866211,9.5176754,"(0.0, 0.0, 0.0, 0.0, 0.0, 0.0, 0.0, 0.0, 0.0)"
2024/07/10/17:01:02.615427,15645,1700604946,791286884,,0.719604492,-1.884155273,-8.448486328,0,"(0.0, 0.0, 0.0, 0.0, 0.0, 0.0, 0.0, 0.0, 0.0)",-0.305175781,0.183105469,-1.647949219,"(0.0, 0.0, 0.0, 0.0, 0.0, 0.0, 0.0, 0.0, 0.0)",0.430664063,0.1961914,9.733007431,"(0.0, 0.0, 0.0, 0.0, 0.0, 0.0, 0.0, 0.0, 0.0)"
2024/07/10/17:01:02.713496,15646,1700604946,890897751,,0.725097656,-1.884155273,-8.668212891,0,"(0.0, 0.0, 0.0, 0.0, 0.0, 0.0, 0.0, 0.0, 0.0)",-0.244140625,-0.061035156,-2.197265625,"(0.0, 0.0, 0.0, 0.0, 0.0, 0.0, 0.0, 0.0, 0.0)",0.421093762,0.1866211,9.737792969,"(0.0, 0.0, 0.0, 0.0, 0.0, 0.0, 0.0, 0.0, 0.0)"
2024/07/10/17:01:02.813592,15647,1700604946,990743282,,0.708618164,-1.889648438,-8.893432617,0,"(0.0, 0.0, 0.0, 0.0, 0.0, 0.0, 0.0, 0.0, 0.0)",-0.48828125,0,-1.770019531,"(0.0, 0.0, 0.0, 0.0, 0.0, 0.0, 0.0, 0.0, 0.0)",0.440234363,0.129199222,9.627734184,"(0.0, 0.0, 0.0, 0.0, 0.0, 0.0, 0.0, 0.0, 0.0)"
2024/07/10/17:01:02.913167,15648,1700604947,90173428,,0.714111328,-1.878662109,-9.008789063,0,"(0.0, 0.0, 0.0, 0.0, 0.0, 0.0, 0.0, 0.0, 0.0)",0.244140625,-0.427246094,-1.037597656,"(0.0, 0.0, 0.0, 0.0, 0.0, 0.0, 0.0, 0.0, 0.0)",0.258398443,0.033496093,9.704297066,"(0.0, 0.0, 0.0, 0.0, 0.0, 0.0, 0.0, 0.0, 0.0)"
2024/07/10/17:01:03.013349,15649,1700604947,189880331,,0.741577148,-1.889648438,-9.102172852,0,"(0.0, 0.0, 0.0, 0.0, 0.0, 0.0, 0.0, 0.0, 0.0)",1.281738281,0.061035156,-0.427246094,"(0.0, 0.0, 0.0, 0.0, 0.0, 0.0, 0.0, 0.0, 0.0)",0.234472662,0.038281251,9.862207413,"(0.0, 0.0, 0.0, 0.0, 0.0, 0.0, 0.0, 0.0, 0.0)"
2024/07/10/17:01:03.114157,15650,1700604947,289457661,,0.763549805,-1.878662109,-9.102172852,0,"(0.0, 0.0, 0.0, 0.0, 0.0, 0.0, 0.0, 0.0, 0.0)",-0.48828125,0,0.305175781,"(0.0, 0.0, 0.0, 0.0, 0.0, 0.0, 0.0, 0.0, 0.0)",0.392382801,0.08613281,9.881347656,"(0.0, 0.0, 0.0, 0.0, 0.0, 0.0, 0.0, 0.0, 0.0)"
2024/07/10/17:01:03.212080,15651,1700604947,389165452,,0.692138672,-1.884155273,-9.080200195,0,"(0.0, 0.0, 0.0, 0.0, 0.0, 0.0, 0.0, 0.0, 0.0)",-0.183105469,-0.061035156,0.305175781,"(0.0, 0.0, 0.0, 0.0, 0.0, 0.0, 0.0, 0.0, 0.0)",0.373242199,0.272753894,9.398046494,"(0.0, 0.0, 0.0, 0.0, 0.0, 0.0, 0.0, 0.0, 0.0)"
2024/07/10/17:01:03.311543,15652,1700604947,488824152,,0.686645508,-1.884155273,-9.052734375,0,"(0.0, 0.0, 0.0, 0.0, 0.0, 0.0, 0.0, 0.0, 0.0)",0.549316406,0.061035156,0.732421875,"(0.0, 0.0, 0.0, 0.0, 0.0, 0.0, 0.0, 0.0, 0.0)",0.368457019,0.100488283,9.6229496,"(0.0, 0.0, 0.0, 0.0, 0.0, 0.0, 0.0, 0.0, 0.0)"
2024/07/10/17:01:03.411210,15653,1700604947,588465129,,0.664672852,-1.895141602,-9.030761719,0,"(0.0, 0.0, 0.0, 0.0, 0.0, 0.0, 0.0, 0.0, 0.0)",-0.244140625,-0.183105469,0.244140625,"(0.0, 0.0, 0.0, 0.0, 0.0, 0.0, 0.0, 0.0, 0.0)",0.224902347,-0.081347659,9.914843559,"(0.0, 0.0, 0.0, 0.0, 0.0, 0.0, 0.0, 0.0, 0.0)"
2024/07/10/17:01:03.510953,15654,1700604947,688095403,,0.631713867,-1.900634766,-8.99230957,0,"(0.0, 0.0, 0.0, 0.0, 0.0, 0.0, 0.0, 0.0, 0.0)",-0.732421875,0.427246094,1.159667969,"(0.0, 0.0, 0.0, 0.0, 0.0, 0.0, 0.0, 0.0, 0.0)",0.488085926,0.162695318,9.699511528,"(0.0, 0.0, 0.0, 0.0, 0.0, 0.0, 0.0, 0.0, 0.0)"
2024/07/10/17:01:03.610564,15655,1700604947,787802473,,0.593261719,-1.90612793,-8.898925781,0,"(0.0, 0.0, 0.0, 0.0, 0.0, 0.0, 0.0, 0.0, 0.0)",0,0.061035156,0.793457031,"(0.0, 0.0, 0.0, 0.0, 0.0, 0.0, 0.0, 0.0, 0.0)",0.545507789,-0.071777344,9.895703316,"(0.0, 0.0, 0.0, 0.0, 0.0, 0.0, 0.0, 0.0, 0.0)"
2024/07/10/17:01:03.710285,15656,1700604947,887435413,,0.576782227,-1.900634766,-8.833007813,0,"(0.0, 0.0, 0.0, 0.0, 0.0, 0.0, 0.0, 0.0, 0.0)",0,0.061035156,0.610351563,"(0.0, 0.0, 0.0, 0.0, 0.0, 0.0, 0.0, 0.0, 0.0)",0.291894525,-0.019140625,9.862207413,"(0.0, 0.0, 0.0, 0.0, 0.0, 0.0, 0.0, 0.0, 0.0)"
2024/07/10/17:01:03.809851,15657,1700604947,987066687,,0.549316406,-1.900634766,-8.7890625,0,"(0.0, 0.0, 0.0, 0.0, 0.0, 0.0, 0.0, 0.0, 0.0)",0,0,0.793457031,"(0.0, 0.0, 0.0, 0.0, 0.0, 0.0, 0.0, 0.0, 0.0)",0.445019543,0.153125003,9.905273438,"(0.0, 0.0, 0.0, 0.0, 0.0, 0.0, 0.0, 0.0, 0.0)"
2024/07/10/17:01:03.910851,15658,1700604948,86809737,,0.55480957,-1.96105957,-8.7890625,0,"(0.0, 0.0, 0.0, 0.0, 0.0, 0.0, 0.0, 0.0, 0.0)",0.48828125,-2.990722656,-0.732421875,"(0.0, 0.0, 0.0, 0.0, 0.0, 0.0, 0.0, 0.0, 0.0)",-0.129199222,0.272753894,9.484179497,"(0.0, 0.0, 0.0, 0.0, 0.0, 0.0, 0.0, 0.0, 0.0)"
2024/07/10/17:01:04.012077,15659,1700604948,186351420,,0.538330078,-1.944580078,-8.805541992,0,"(0.0, 0.0, 0.0, 0.0, 0.0, 0.0, 0.0, 0.0, 0.0)",-0.183105469,1.586914063,0.061035156,"(0.0, 0.0, 0.0, 0.0, 0.0, 0.0, 0.0, 0.0, 0.0)",0.291894525,0.177050784,9.579882622,"(0.0, 0.0, 0.0, 0.0, 0.0, 0.0, 0.0, 0.0, 0.0)"
2024/07/10/17:01:04.108509,15660,1700604948,285987731,,0.510864258,-1.939086914,-8.827514648,0,"(0.0, 0.0, 0.0, 0.0, 0.0, 0.0, 0.0, 0.0, 0.0)",0.671386719,0.183105469,-0.610351563,"(0.0, 0.0, 0.0, 0.0, 0.0, 0.0, 0.0, 0.0, 0.0)",0.3828125,0.019140625,9.713867188,"(0.0, 0.0, 0.0, 0.0, 0.0, 0.0, 0.0, 0.0, 0.0)"
2024/07/10/17:01:04.208522,15661,1700604948,385619356,,0.477905273,-1.93359375,-8.876953125,0,"(0.0, 0.0, 0.0, 0.0, 0.0, 0.0, 0.0, 0.0, 0.0)",-0.061035156,0.122070313,-0.549316406,"(0.0, 0.0, 0.0, 0.0, 0.0, 0.0, 0.0, 0.0, 0.0)",0.37802735,-0.038281251,9.933984756,"(0.0, 0.0, 0.0, 0.0, 0.0, 0.0, 0.0, 0.0, 0.0)"
2024/07/10/17:01:04.308893,15662,1700604948,485263445,,0.461425781,-1.928100586,-8.920898438,0,"(0.0, 0.0, 0.0, 0.0, 0.0, 0.0, 0.0, 0.0, 0.0)",-0.244140625,0.061035156,-0.427246094,"(0.0, 0.0, 0.0, 0.0, 0.0, 0.0, 0.0, 0.0, 0.0)",0.19140625,-0.038281251,9.977050781,"(0.0, 0.0, 0.0, 0.0, 0.0, 0.0, 0.0, 0.0, 0.0)"
2024/07/10/17:01:04.407743,15663,1700604948,584954996,,0.455932617,-1.922607422,-8.953857422,0,"(0.0, 0.0, 0.0, 0.0, 0.0, 0.0, 0.0, 0.0, 0.0)",0.122070313,-0.305175781,-0.305175781,"(0.0, 0.0, 0.0, 0.0, 0.0, 0.0, 0.0, 0.0, 0.0)",0.239257813,0.124414064,9.991406441,"(0.0, 0.0, 0.0, 0.0, 0.0, 0.0, 0.0, 0.0, 0.0)"
2024/07/10/17:01:04.509654,15664,1700604948,684651491,,0.428466797,-1.93359375,-8.959350586,0,"(0.0, 0.0, 0.0, 0.0, 0.0, 0.0, 0.0, 0.0, 0.0)",-0.305175781,0,0.305175781,"(0.0, 0.0, 0.0, 0.0, 0.0, 0.0, 0.0, 0.0, 0.0)",0.296679676,0.062207032,9.680371284,"(0.0, 0.0, 0.0, 0.0, 0.0, 0.0, 0.0, 0.0, 0.0)"
2024/07/10/17:01:04.609993,15665,1700604948,784289228,,0.401000977,-1.939086914,-8.953857422,0,"(0.0, 0.0, 0.0, 0.0, 0.0, 0.0, 0.0, 0.0, 0.0)",-0.549316406,-0.122070313,-0.122070313,"(0.0, 0.0, 0.0, 0.0, 0.0, 0.0, 0.0, 0.0, 0.0)",0.229687497,0.057421874,9.70908165,"(0.0, 0.0, 0.0, 0.0, 0.0, 0.0, 0.0, 0.0, 0.0)"
2024/07/10/17:01:04.712554,15666,1700604948,883965946,,0.362548828,-1.944580078,-9.003295898,0,"(0.0, 0.0, 0.0, 0.0, 0.0, 0.0, 0.0, 0.0, 0.0)",-0.305175781,0,-0.305175781,"(0.0, 0.0, 0.0, 0.0, 0.0, 0.0, 0.0, 0.0, 0.0)",0.363671869,0.095703125,9.996191025,"(0.0, 0.0, 0.0, 0.0, 0.0, 0.0, 0.0, 0.0, 0.0)"
2024/07/10/17:01:04.806007,15667,1700604948,983467740,,0.340576172,-1.944580078,-9.014282227,0,"(0.0, 0.0, 0.0, 0.0, 0.0, 0.0, 0.0, 0.0, 0.0)",-0.48828125,0,0.305175781,"(0.0, 0.0, 0.0, 0.0, 0.0, 0.0, 0.0, 0.0, 0.0)",0.483300775,0.148339838,9.737792969,"(0.0, 0.0, 0.0, 0.0, 0.0, 0.0, 0.0, 0.0, 0.0)"
2024/07/10/17:01:04.905872,15668,1700604949,83270512,,0.335083008,-1.955566406,-9.063720703,0,"(0.0, 0.0, 0.0, 0.0, 0.0, 0.0, 0.0, 0.0, 0.0)",-0.122070313,-0.183105469,-0.793457031,"(0.0, 0.0, 0.0, 0.0, 0.0, 0.0, 0.0, 0.0, 0.0)",0.263183594,0.081347659,9.728222847,"(0.0, 0.0, 0.0, 0.0, 0.0, 0.0, 0.0, 0.0, 0.0)"
2024/07/10/17:01:05.005751,15669,1700604949,182956118,,0.3515625,-1.944580078,-9.074707031,0,"(0.0, 0.0, 0.0, 0.0, 0.0, 0.0, 0.0, 0.0, 0.0)",1.220703125,0.48828125,0.48828125,"(0.0, 0.0, 0.0, 0.0, 0.0, 0.0, 0.0, 0.0, 0.0)",0.468945324,-0.071777344,9.785644531,"(0.0, 0.0, 0.0, 0.0, 0.0, 0.0, 0.0, 0.0, 0.0)"
2024/07/10/17:01:05.104870,15670,1700604949,282555059,,0.357055664,-1.955566406,-9.091186523,0,"(0.0, 0.0, 0.0, 0.0, 0.0, 0.0, 0.0, 0.0, 0.0)",-0.244140625,0.061035156,0.732421875,"(0.0, 0.0, 0.0, 0.0, 0.0, 0.0, 0.0, 0.0, 0.0)",0.411523432,0,9.766504288,"(0.0, 0.0, 0.0, 0.0, 0.0, 0.0, 0.0, 0.0, 0.0)"
2024/07/10/17:01:05.214824,15671,1700604949,382108501,,0.346069336,-1.950073242,-9.030761719,0,"(0.0, 0.0, 0.0, 0.0, 0.0, 0.0, 0.0, 0.0, 0.0)",-0.549316406,-0.061035156,0.610351563,"(0.0, 0.0, 0.0, 0.0, 0.0, 0.0, 0.0, 0.0, 0.0)",0.320605457,0.133984372,9.713867188,"(0.0, 0.0, 0.0, 0.0, 0.0, 0.0, 0.0, 0.0, 0.0)"
2024/07/10/17:01:05.304208,15672,1700604949,481720812,,0.307617188,-1.950073242,-9.025268555,0,"(0.0, 0.0, 0.0, 0.0, 0.0, 0.0, 0.0, 0.0, 0.0)",-0.061035156,0,0,"(0.0, 0.0, 0.0, 0.0, 0.0, 0.0, 0.0, 0.0, 0.0)",0.38759765,0.157910153,9.632519722,"(0.0, 0.0, 0.0, 0.0, 0.0, 0.0, 0.0, 0.0, 0.0)"
2024/07/10/17:01:05.404439,15673,1700604949,581433455,,0.296630859,-1.93359375,-9.036254883,0,"(0.0, 0.0, 0.0, 0.0, 0.0, 0.0, 0.0, 0.0, 0.0)",-0.122070313,0,-0.48828125,"(0.0, 0.0, 0.0, 0.0, 0.0, 0.0, 0.0, 0.0, 0.0)",0.177050784,0,9.627734184,"(0.0, 0.0, 0.0, 0.0, 0.0, 0.0, 0.0, 0.0, 0.0)"
2024/07/10/17:01:05.510370,15674,1700604949,681149043,,0.302124023,-1.93359375,-9.135131836,0,"(0.0, 0.0, 0.0, 0.0, 0.0, 0.0, 0.0, 0.0, 0.0)",0.366210938,-0.061035156,-2.197265625,"(0.0, 0.0, 0.0, 0.0, 0.0, 0.0, 0.0, 0.0, 0.0)",0.464160144,-0.014355469,9.790430069,"(0.0, 0.0, 0.0, 0.0, 0.0, 0.0, 0.0, 0.0, 0.0)"
2024/07/10/17:01:05.609382,15675,1700604949,780838705,,0.32409668,-1.928100586,-9.321899414,0,"(0.0, 0.0, 0.0, 0.0, 0.0, 0.0, 0.0, 0.0, 0.0)",-0.183105469,0.244140625,-0.915527344,"(0.0, 0.0, 0.0, 0.0, 0.0, 0.0, 0.0, 0.0, 0.0)",0.229687497,0.110058591,9.737792969,"(0.0, 0.0, 0.0, 0.0, 0.0, 0.0, 0.0, 0.0, 0.0)"
2024/07/10/17:01:05.704062,15676,1700604949,880380758,,0.335083008,-1.911621094,-9.371337891,0,"(0.0, 0.0, 0.0, 0.0, 0.0, 0.0, 0.0, 0.0, 0.0)",0,0,-0.305175781,"(0.0, 0.0, 0.0, 0.0, 0.0, 0.0, 0.0, 0.0, 0.0)",0.239257813,0.110058591,9.627734184,"(0.0, 0.0, 0.0, 0.0, 0.0, 0.0, 0.0, 0.0, 0.0)"
2024/07/10/17:01:05.803166,15677,1700604949,980117197,,0.335083008,-1.90612793,-9.349365234,0,"(0.0, 0.0, 0.0, 0.0, 0.0, 0.0, 0.0, 0.0, 0.0)",0.244140625,0,0.244140625,"(0.0, 0.0, 0.0, 0.0, 0.0, 0.0, 0.0, 0.0, 0.0)",0.454589844,0.167480469,9.488965034,"(0.0, 0.0, 0.0, 0.0, 0.0, 0.0, 0.0, 0.0, 0.0)"
2024/07/10/17:01:05.905052,15678,1700604950,79664213,,0.313110352,-1.917114258,-9.365844727,0,"(0.0, 0.0, 0.0, 0.0, 0.0, 0.0, 0.0, 0.0, 0.0)",-0.122070313,-0.122070313,-0.549316406,"(0.0, 0.0, 0.0, 0.0, 0.0, 0.0, 0.0, 0.0, 0.0)",-0.057421874,-0.062207032,9.933984756,"(0.0, 0.0, 0.0, 0.0, 0.0, 0.0, 0.0, 0.0, 0.0)"
2024/07/10/17:01:06.003932,15679,1700604950,179342116,,0.302124023,-1.922607422,-9.398803711,0,"(0.0, 0.0, 0.0, 0.0, 0.0, 0.0, 0.0, 0.0, 0.0)",-0.549316406,-0.427246094,-0.244140625,"(0.0, 0.0, 0.0, 0.0, 0.0, 0.0, 0.0, 0.0, 0.0)",0.19140625,0.028710937,9.953125,"(0.0, 0.0, 0.0, 0.0, 0.0, 0.0, 0.0, 0.0, 0.0)"
2024/07/10/17:01:06.101809,15680,1700604950,279113444,,0.291137695,-1.928100586,-9.415283203,0,"(0.0, 0.0, 0.0, 0.0, 0.0, 0.0, 0.0, 0.0, 0.0)",0.122070313,-0.183105469,-0.549316406,"(0.0, 0.0, 0.0, 0.0, 0.0, 0.0, 0.0, 0.0, 0.0)",0.411523432,0.119628906,9.661230087,"(0.0, 0.0, 0.0, 0.0, 0.0, 0.0, 0.0, 0.0, 0.0)"
2024/07/10/17:01:06.201284,15681,1700604950,378560757,,0.373535156,-1.922607422,-9.387817383,0,"(0.0, 0.0, 0.0, 0.0, 0.0, 0.0, 0.0, 0.0, 0.0)",0.671386719,0.122070313,0.061035156,"(0.0, 0.0, 0.0, 0.0, 0.0, 0.0, 0.0, 0.0, 0.0)",0.143554688,-0.019140625,9.938769341,"(0.0, 0.0, 0.0, 0.0, 0.0, 0.0, 0.0, 0.0, 0.0)"
2024/07/10/17:01:06.300651,15682,1700604950,478189123,,0.401000977,-1.922607422,-9.338378906,0,"(0.0, 0.0, 0.0, 0.0, 0.0, 0.0, 0.0, 0.0, 0.0)",0.244140625,0,0.671386719,"(0.0, 0.0, 0.0, 0.0, 0.0, 0.0, 0.0, 0.0, 0.0)",0.354101568,0.114843749,9.862207413,"(0.0, 0.0, 0.0, 0.0, 0.0, 0.0, 0.0, 0.0, 0.0)"
2024/07/10/17:01:06.400511,15683,1700604950,577804897,,0.428466797,-1.922607422,-9.272460938,0,"(0.0, 0.0, 0.0, 0.0, 0.0, 0.0, 0.0, 0.0, 0.0)",0.427246094,0,0.549316406,"(0.0, 0.0, 0.0, 0.0, 0.0, 0.0, 0.0, 0.0, 0.0)",0.358886719,0.004785156,9.924413681,"(0.0, 0.0, 0.0, 0.0, 0.0, 0.0, 0.0, 0.0, 0.0)"
2024/07/10/17:01:06.501966,15684,1700604950,677492615,,0.433959961,-1.922607422,-9.190063477,0,"(0.0, 0.0, 0.0, 0.0, 0.0, 0.0, 0.0, 0.0, 0.0)",-0.244140625,0.610351563,0.732421875,"(0.0, 0.0, 0.0, 0.0, 0.0, 0.0, 0.0, 0.0, 0.0)",0.464160144,-0.014355469,9.972265244,"(0.0, 0.0, 0.0, 0.0, 0.0, 0.0, 0.0, 0.0, 0.0)"
2024/07/10/17:01:06.600477,15685,1700604950,777224591,,0.450439453,-1.93359375,-9.151611328,0,"(0.0, 0.0, 0.0, 0.0, 0.0, 0.0, 0.0, 0.0, 0.0)",0.305175781,0.244140625,0.48828125,"(0.0, 0.0, 0.0, 0.0, 0.0, 0.0, 0.0, 0.0, 0.0)",0.516796887,-0.133984372,9.718652725,"(0.0, 0.0, 0.0, 0.0, 0.0, 0.0, 0.0, 0.0, 0.0)"
2024/07/10/17:01:06.699873,15686,1700604950,876833403,,0.422973633,-1.928100586,-9.025268555,0,"(0.0, 0.0, 0.0, 0.0, 0.0, 0.0, 0.0, 0.0, 0.0)",0.061035156,0,0.9765625,"(0.0, 0.0, 0.0, 0.0, 0.0, 0.0, 0.0, 0.0, 0.0)",0.449804693,-0.076562501,10.01054668,"(0.0, 0.0, 0.0, 0.0, 0.0, 0.0, 0.0, 0.0, 0.0)"
2024/07/10/17:01:06.799314,15687,1700604950,976495991,,0.433959961,-1.922607422,-8.96484375,0,"(0.0, 0.0, 0.0, 0.0, 0.0, 0.0, 0.0, 0.0, 0.0)",0.183105469,0.183105469,0.671386719,"(0.0, 0.0, 0.0, 0.0, 0.0, 0.0, 0.0, 0.0, 0.0)",0.311035156,0.033496093,10.00097656,"(0.0, 0.0, 0.0, 0.0, 0.0, 0.0, 0.0, 0.0, 0.0)"
2024/07/10/17:01:06.899579,15688,1700604951,76262615,,0.444946289,-1.884155273,-8.920898438,0,"(0.0, 0.0, 0.0, 0.0, 0.0, 0.0, 0.0, 0.0, 0.0)",-0.366210938,1.037597656,0.244140625,"(0.0, 0.0, 0.0, 0.0, 0.0, 0.0, 0.0, 0.0, 0.0)",0.468945324,0.157910153,9.675585747,"(0.0, 0.0, 0.0, 0.0, 0.0, 0.0, 0.0, 0.0, 0.0)"
2024/07/10/17:01:06.998362,15689,1700604951,175745391,,0.433959961,-1.944580078,-8.99230957,0,"(0.0, 0.0, 0.0, 0.0, 0.0, 0.0, 0.0, 0.0, 0.0)",-0.793457031,-2.319335938,-3.051757813,"(0.0, 0.0, 0.0, 0.0, 0.0, 0.0, 0.0, 0.0, 0.0)",0.440234363,-0.248828128,9.967480659,"(0.0, 0.0, 0.0, 0.0, 0.0, 0.0, 0.0, 0.0, 0.0)"
2024/07/10/17:01:07.098228,15690,1700604951,275436127,,0.488891602,-1.972045898,-9.327392578,0,"(0.0, 0.0, 0.0, 0.0, 0.0, 0.0, 0.0, 0.0, 0.0)",-0.061035156,0.183105469,-1.46484375,"(0.0, 0.0, 0.0, 0.0, 0.0, 0.0, 0.0, 0.0, 0.0)",0.315820307,0.129199222,9.800000191,"(0.0, 0.0, 0.0, 0.0, 0.0, 0.0, 0.0, 0.0, 0.0)"
2024/07/10/17:01:07.197861,15691,1700604951,375059030,,0.49987793,-1.972045898,-9.459228516,0,"(0.0, 0.0, 0.0, 0.0, 0.0, 0.0, 0.0, 0.0, 0.0)",0.122070313,0,-1.586914063,"(0.0, 0.0, 0.0, 0.0, 0.0, 0.0, 0.0, 0.0, 0.0)",0.349316418,0.244042963,9.699511528,"(0.0, 0.0, 0.0, 0.0, 0.0, 0.0, 0.0, 0.0, 0.0)"
2024/07/10/17:01:07.297533,15692,1700604951,474662601,,0.510864258,-1.966552734,-9.541625977,0,"(0.0, 0.0, 0.0, 0.0, 0.0, 0.0, 0.0, 0.0, 0.0)",-0.48828125,-0.122070313,-0.183105469,"(0.0, 0.0, 0.0, 0.0, 0.0, 0.0, 0.0, 0.0, 0.0)",0.277539074,0.229687497,9.637304306,"(0.0, 0.0, 0.0, 0.0, 0.0, 0.0, 0.0, 0.0, 0.0)"
2024/07/10/17:01:07.401606,15693,1700604951,574444707,,0.532836914,-1.972045898,-9.569091797,0,"(0.0, 0.0, 0.0, 0.0, 0.0, 0.0, 0.0, 0.0, 0.0)",0.183105469,-0.305175781,-0.732421875,"(0.0, 0.0, 0.0, 0.0, 0.0, 0.0, 0.0, 0.0, 0.0)",-0.023925781,0.062207032,9.656445503,"(0.0, 0.0, 0.0, 0.0, 0.0, 0.0, 0.0, 0.0, 0.0)"
2024/07/10/17:01:07.500948,15694,1700604951,674022796,,0.543823242,-1.977539063,-9.580078125,0,"(0.0, 0.0, 0.0, 0.0, 0.0, 0.0, 0.0, 0.0, 0.0)",0.061035156,-0.366210938,-0.305175781,"(0.0, 0.0, 0.0, 0.0, 0.0, 0.0, 0.0, 0.0, 0.0)",0.416308582,0.05263672,9.910058975,"(0.0, 0.0, 0.0, 0.0, 0.0, 0.0, 0.0, 0.0, 0.0)"
2024/07/10/17:01:07.607167,15695,1700604951,773644681,,0.543823242,-1.983032227,-9.613037109,0,"(0.0, 0.0, 0.0, 0.0, 0.0, 0.0, 0.0, 0.0, 0.0)",0,-0.244140625,-0.610351563,"(0.0, 0.0, 0.0, 0.0, 0.0, 0.0, 0.0, 0.0, 0.0)",0.339746088,0.263183594,9.627734184,"(0.0, 0.0, 0.0, 0.0, 0.0, 0.0, 0.0, 0.0, 0.0)"
2024/07/10/17:01:07.698729,15696,1700604951,873374546,,0.560302734,-1.988525391,-9.656982422,0,"(0.0, 0.0, 0.0, 0.0, 0.0, 0.0, 0.0, 0.0, 0.0)",0.061035156,-0.122070313,-0.48828125,"(0.0, 0.0, 0.0, 0.0, 0.0, 0.0, 0.0, 0.0, 0.0)",0.234472662,0.200976565,9.737792969,"(0.0, 0.0, 0.0, 0.0, 0.0, 0.0, 0.0, 0.0, 0.0)"
2024/07/10/17:01:07.763442,15697,1700604951,940335445,,0.549316406,-1.994018555,-9.700927734,0,"(0.0, 0.0, 0.0, 0.0, 0.0, 0.0, 0.0, 0.0, 0.0)",0.122070313,-0.305175781,-0.427246094,"(0.0, 0.0, 0.0, 0.0, 0.0, 0.0, 0.0, 0.0, 0.0)",0.435449213,0.167480469,9.589452744,"(0.0, 0.0, 0.0, 0.0, 0.0, 0.0, 0.0, 0.0, 0.0)"
2024/07/10/17:01:07.887398,15698,1700604952,56127381,,0.219726563,-1.950073242,-8.986816406,0,"(0.0, 0.0, 0.0, 0.0, 0.0, 0.0, 0.0, 0.0, 0.0)",-0.183105469,0.183105469,4.028320313,"(0.0, 0.0, 0.0, 0.0, 0.0, 0.0, 0.0, 0.0, 0.0)",0.866113305,-1.306347609,9.943554878,"(0.0, 0.0, 0.0, 0.0, 0.0, 0.0, 0.0, 0.0, 0.0)"
2024/07/10/17:01:08.007739,15699,1700604952,172094148,,0.120849609,-2.010498047,-9.261474609,0,"(0.0, 0.0, 0.0, 0.0, 0.0, 0.0, 0.0, 0.0, 0.0)",2.990722656,-0.48828125,-7.202148438,"(0.0, 0.0, 0.0, 0.0, 0.0, 0.0, 0.0, 0.0, 0.0)",1.014453173,0.976171851,9.020019531,"(0.0, 0.0, 0.0, 0.0, 0.0, 0.0, 0.0, 0.0, 0.0)"
2024/07/10/17:01:08.095701,15700,1700604952,271730107,,0.197753906,-2.065429688,-10.06347656,0,"(0.0, 0.0, 0.0, 0.0, 0.0, 0.0, 0.0, 0.0, 0.0)",-0.854492188,-0.244140625,-10.55908203,"(0.0, 0.0, 0.0, 0.0, 0.0, 0.0, 0.0, 0.0, 0.0)",0.602929711,0.861328125,9.661230087,"(0.0, 0.0, 0.0, 0.0, 0.0, 0.0, 0.0, 0.0, 0.0)"
2024/07/10/17:01:08.195213,15701,1700604952,371488694,,0.307617188,-2.087402344,-10.92041016,0,"(0.0, 0.0, 0.0, 0.0, 0.0, 0.0, 0.0, 0.0, 0.0)",-0.183105469,-0.122070313,-5.615234375,"(0.0, 0.0, 0.0, 0.0, 0.0, 0.0, 0.0, 0.0, 0.0)",0.172265619,0.722558618,9.718652725,"(0.0, 0.0, 0.0, 0.0, 0.0, 0.0, 0.0, 0.0, 0.0)"
2024/07/10/17:01:08.298962,15702,1700604952,471163208,,0.433959961,-2.109375,-11.51367188,0,"(0.0, 0.0, 0.0, 0.0, 0.0, 0.0, 0.0, 0.0, 0.0)",0.122070313,-0.122070313,-6.103515625,"(0.0, 0.0, 0.0, 0.0, 0.0, 0.0, 0.0, 0.0, 0.0)",0.224902347,0.459374994,9.809570313,"(0.0, 0.0, 0.0, 0.0, 0.0, 0.0, 0.0, 0.0, 0.0)"
2024/07/10/17:01:08.400858,15703,1700604952,570895518,,0.571289063,-2.120361328,-12.15637207,0,"(0.0, 0.0, 0.0, 0.0, 0.0, 0.0, 0.0, 0.0, 0.0)",-0.183105469,0.061035156,-6.896972656,"(0.0, 0.0, 0.0, 0.0, 0.0, 0.0, 0.0, 0.0, 0.0)",0.354101568,0.205761716,9.790430069,"(0.0, 0.0, 0.0, 0.0, 0.0, 0.0, 0.0, 0.0, 0.0)"
2024/07/10/17:01:08.493556,15704,1700604952,670553680,,0.615234375,-2.114868164,-12.72766113,0,"(0.0, 0.0, 0.0, 0.0, 0.0, 0.0, 0.0, 0.0, 0.0)",-0.915527344,-0.061035156,-3.112792969,"(0.0, 0.0, 0.0, 0.0, 0.0, 0.0, 0.0, 0.0, 0.0)",0.153125003,0.071777344,9.780858994,"(0.0, 0.0, 0.0, 0.0, 0.0, 0.0, 0.0, 0.0, 0.0)"
2024/07/10/17:01:08.594323,15705,1700604952,770096289,,0.626220703,-2.076416016,-12.94189453,0,"(0.0, 0.0, 0.0, 0.0, 0.0, 0.0, 0.0, 0.0, 0.0)",-0.732421875,0.305175781,-1.953125,"(0.0, 0.0, 0.0, 0.0, 0.0, 0.0, 0.0, 0.0, 0.0)",0.497656256,0.014355469,9.776074409,"(0.0, 0.0, 0.0, 0.0, 0.0, 0.0, 0.0, 0.0, 0.0)"
2024/07/10/17:01:08.694536,15706,1700604952,869722859,,0.593261719,-2.037963867,-13.09570313,0,"(0.0, 0.0, 0.0, 0.0, 0.0, 0.0, 0.0, 0.0, 0.0)",-0.183105469,0.854492188,-1.220703125,"(0.0, 0.0, 0.0, 0.0, 0.0, 0.0, 0.0, 0.0, 0.0)",0.497656256,0.296679676,9.756933212,"(0.0, 0.0, 0.0, 0.0, 0.0, 0.0, 0.0, 0.0, 0.0)"
2024/07/10/17:01:08.793571,15707,1700604952,969523335,,0.587768555,-2.032470703,-13.23852539,0,"(0.0, 0.0, 0.0, 0.0, 0.0, 0.0, 0.0, 0.0, 0.0)",-0.305175781,-0.061035156,-1.586914063,"(0.0, 0.0, 0.0, 0.0, 0.0, 0.0, 0.0, 0.0, 0.0)",0.358886719,0.157910153,9.680371284,"(0.0, 0.0, 0.0, 0.0, 0.0, 0.0, 0.0, 0.0, 0.0)"
2024/07/10/17:01:08.893273,15708,1700604953,69063498,,0.593261719,-2.021484375,-13.359375,0,"(0.0, 0.0, 0.0, 0.0, 0.0, 0.0, 0.0, 0.0, 0.0)",0,-0.061035156,-0.915527344,"(0.0, 0.0, 0.0, 0.0, 0.0, 0.0, 0.0, 0.0, 0.0)",0.349316418,0.157910153,9.680371284,"(0.0, 0.0, 0.0, 0.0, 0.0, 0.0, 0.0, 0.0, 0.0)"
2024/07/10/17:01:08.993793,15709,1700604953,168658069,,0.593261719,-2.010498047,-13.39782715,0,"(0.0, 0.0, 0.0, 0.0, 0.0, 0.0, 0.0, 0.0, 0.0)",0.305175781,0.122070313,2.380371094,"(0.0, 0.0, 0.0, 0.0, 0.0, 0.0, 0.0, 0.0, 0.0)",0.066992186,0.009570313,9.838281631,"(0.0, 0.0, 0.0, 0.0, 0.0, 0.0, 0.0, 0.0, 0.0)"
2024/07/10/17:01:09.092559,15710,1700604953,268318380,,0.571289063,-1.966552734,-12.86499023,0,"(0.0, 0.0, 0.0, 0.0, 0.0, 0.0, 0.0, 0.0, 0.0)",0.427246094,-0.427246094,6.8359375,"(0.0, 0.0, 0.0, 0.0, 0.0, 0.0, 0.0, 0.0, 0.0)",0.124414064,0.210546881,9.651659966,"(0.0, 0.0, 0.0, 0.0, 0.0, 0.0, 0.0, 0.0, 0.0)"
2024/07/10/17:01:09.190950,15711,1700604953,367965746,,0.538330078,-1.93359375,-12.10144043,0,"(0.0, 0.0, 0.0, 0.0, 0.0, 0.0, 0.0, 0.0, 0.0)",1.281738281,0.183105469,8.972167969,"(0.0, 0.0, 0.0, 0.0, 0.0, 0.0, 0.0, 0.0, 0.0)",0.124414064,0.129199222,9.488965034,"(0.0, 0.0, 0.0, 0.0, 0.0, 0.0, 0.0, 0.0, 0.0)"
2024/07/10/17:01:09.290243,15712,1700604953,467663130,,0.477905273,-1.884155273,-11.1126709,0,"(0.0, 0.0, 0.0, 0.0, 0.0, 0.0, 0.0, 0.0, 0.0)",-0.854492188,0.48828125,10.80322266,"(0.0, 0.0, 0.0, 0.0, 0.0, 0.0, 0.0, 0.0, 0.0)",0.38759765,0.05263672,9.953125,"(0.0, 0.0, 0.0, 0.0, 0.0, 0.0, 0.0, 0.0, 0.0)"
2024/07/10/17:01:09.390342,15713,1700604953,567258867,,0.444946289,-1.856689453,-10.0579834,0,"(0.0, 0.0, 0.0, 0.0, 0.0, 0.0, 0.0, 0.0, 0.0)",-0.122070313,0.244140625,10.31494141,"(0.0, 0.0, 0.0, 0.0, 0.0, 0.0, 0.0, 0.0, 0.0)",0.368457019,0.100488283,9.795214653,"(0.0, 0.0, 0.0, 0.0, 0.0, 0.0, 0.0, 0.0, 0.0)"
2024/07/10/17:01:09.491413,15714,1700604953,666839308,,0.346069336,-1.834716797,-9.074707031,0,"(0.0, 0.0, 0.0, 0.0, 0.0, 0.0, 0.0, 0.0, 0.0)",0.305175781,0.122070313,7.141113281,"(0.0, 0.0, 0.0, 0.0, 0.0, 0.0, 0.0, 0.0, 0.0)",0.583789051,-0.043066405,9.933984756,"(0.0, 0.0, 0.0, 0.0, 0.0, 0.0, 0.0, 0.0, 0.0)"
2024/07/10/17:01:09.591848,15715,1700604953,766629136,,0.368041992,-1.862182617,-8.596801758,0,"(0.0, 0.0, 0.0, 0.0, 0.0, 0.0, 0.0, 0.0, 0.0)",1.098632813,-0.061035156,3.662109375,"(0.0, 0.0, 0.0, 0.0, 0.0, 0.0, 0.0, 0.0, 0.0)",0.3828125,-0.090917967,9.838281631,"(0.0, 0.0, 0.0, 0.0, 0.0, 0.0, 0.0, 0.0, 0.0)"
2024/07/10/17:01:09.689252,15716,1700604953,866251521,,0.346069336,-1.878662109,-8.294677734,0,"(0.0, 0.0, 0.0, 0.0, 0.0, 0.0, 0.0, 0.0, 0.0)",0.183105469,0.183105469,2.685546875,"(0.0, 0.0, 0.0, 0.0, 0.0, 0.0, 0.0, 0.0, 0.0)",0.435449213,0.047851563,9.886133194,"(0.0, 0.0, 0.0, 0.0, 0.0, 0.0, 0.0, 0.0, 0.0)"
2024/07/10/17:01:09.788615,15717,1700604953,965932165,,0.346069336,-1.884155273,-8.036499023,0,"(0.0, 0.0, 0.0, 0.0, 0.0, 0.0, 0.0, 0.0, 0.0)",1.403808594,-0.671386719,1.525878906,"(0.0, 0.0, 0.0, 0.0, 0.0, 0.0, 0.0, 0.0, 0.0)",-0.014355469,0.047851563,9.776074409,"(0.0, 0.0, 0.0, 0.0, 0.0, 0.0, 0.0, 0.0, 0.0)"
2024/07/10/17:01:09.888386,15718,1700604954,65634346,,0.313110352,-1.889648438,-7.871704102,0,"(0.0, 0.0, 0.0, 0.0, 0.0, 0.0, 0.0, 0.0, 0.0)",-0.366210938,0.183105469,1.525878906,"(0.0, 0.0, 0.0, 0.0, 0.0, 0.0, 0.0, 0.0, 0.0)",0.253613293,0.110058591,9.838281631,"(0.0, 0.0, 0.0, 0.0, 0.0, 0.0, 0.0, 0.0, 0.0)"
2024/07/10/17:01:09.987873,15719,1700604954,165167991,,0.307617188,-1.889648438,-7.728881836,0,"(0.0, 0.0, 0.0, 0.0, 0.0, 0.0, 0.0, 0.0, 0.0)",0,0.183105469,0.9765625,"(0.0, 0.0, 0.0, 0.0, 0.0, 0.0, 0.0, 0.0, 0.0)",0.440234363,0.133984372,9.675585747,"(0.0, 0.0, 0.0, 0.0, 0.0, 0.0, 0.0, 0.0, 0.0)"
2024/07/10/17:01:10.088400,15720,1700604954,264780302,,0.302124023,-1.867675781,-7.624511719,0,"(0.0, 0.0, 0.0, 0.0, 0.0, 0.0, 0.0, 0.0, 0.0)",0.244140625,0.427246094,-0.061035156,"(0.0, 0.0, 0.0, 0.0, 0.0, 0.0, 0.0, 0.0, 0.0)",0.57900393,-0.004785156,9.560742378,"(0.0, 0.0, 0.0, 0.0, 0.0, 0.0, 0.0, 0.0, 0.0)"
2024/07/10/17:01:10.186902,15721,1700604954,364426279,,0.329589844,-1.889648438,-7.608032227,0,"(0.0, 0.0, 0.0, 0.0, 0.0, 0.0, 0.0, 0.0, 0.0)",0,-0.244140625,2.685546875,"(0.0, 0.0, 0.0, 0.0, 0.0, 0.0, 0.0, 0.0, 0.0)",0.095703125,-0.038281251,9.938769341,"(0.0, 0.0, 0.0, 0.0, 0.0, 0.0, 0.0, 0.0, 0.0)"
2024/07/10/17:01:10.295334,15722,1700604954,464119627,,0.346069336,-1.735839844,-6.976318359,0,"(0.0, 0.0, 0.0, 0.0, 0.0, 0.0, 0.0, 0.0, 0.0)",0.549316406,-0.915527344,9.887695313,"(0.0, 0.0, 0.0, 0.0, 0.0, 0.0, 0.0, 0.0, 0.0)",-0.239257813,-0.100488283,10.20195293,"(0.0, 0.0, 0.0, 0.0, 0.0, 0.0, 0.0, 0.0, 0.0)"
2024/07/10/17:01:10.389695,15723,1700604954,563865714,,0.296630859,-1.686401367,-6.080932617,0,"(0.0, 0.0, 0.0, 0.0, 0.0, 0.0, 0.0, 0.0, 0.0)",-0.061035156,0.183105469,7.995605469,"(0.0, 0.0, 0.0, 0.0, 0.0, 0.0, 0.0, 0.0, 0.0)",0.229687497,0.019140625,10.0057621,"(0.0, 0.0, 0.0, 0.0, 0.0, 0.0, 0.0, 0.0, 0.0)"
2024/07/10/17:01:10.488609,15724,1700604954,663463063,,0.296630859,-1.680908203,-5.344848633,0,"(0.0, 0.0, 0.0, 0.0, 0.0, 0.0, 0.0, 0.0, 0.0)",-0.549316406,0,4.516601563,"(0.0, 0.0, 0.0, 0.0, 0.0, 0.0, 0.0, 0.0, 0.0)",0.354101568,0.057421874,9.742578506,"(0.0, 0.0, 0.0, 0.0, 0.0, 0.0, 0.0, 0.0, 0.0)"
2024/07/10/17:01:10.589062,15725,1700604954,763126336,,0.302124023,-1.708374023,-5.009765625,0,"(0.0, 0.0, 0.0, 0.0, 0.0, 0.0, 0.0, 0.0, 0.0)",0.48828125,-0.183105469,2.685546875,"(0.0, 0.0, 0.0, 0.0, 0.0, 0.0, 0.0, 0.0, 0.0)",0.37802735,-0.009570313,9.800000191,"(0.0, 0.0, 0.0, 0.0, 0.0, 0.0, 0.0, 0.0, 0.0)"
2024/07/10/17:01:10.685512,15726,1700604954,862793758,,0.291137695,-1.735839844,-4.757080078,0,"(0.0, 0.0, 0.0, 0.0, 0.0, 0.0, 0.0, 0.0, 0.0)",0.427246094,-0.305175781,1.525878906,"(0.0, 0.0, 0.0, 0.0, 0.0, 0.0, 0.0, 0.0, 0.0)",0.100488283,-0.028710937,9.914843559,"(0.0, 0.0, 0.0, 0.0, 0.0, 0.0, 0.0, 0.0, 0.0)"
2024/07/10/17:01:10.786416,15727,1700604954,962398050,,0.32409668,-1.763305664,-4.59777832,0,"(0.0, 0.0, 0.0, 0.0, 0.0, 0.0, 0.0, 0.0, 0.0)",0.122070313,0,1.46484375,"(0.0, 0.0, 0.0, 0.0, 0.0, 0.0, 0.0, 0.0, 0.0)",0.272753894,0.004785156,9.919629097,"(0.0, 0.0, 0.0, 0.0, 0.0, 0.0, 0.0, 0.0, 0.0)"
2024/07/10/17:01:10.884768,15728,1700604955,62095416,,0.340576172,-1.7578125,-4.383544922,0,"(0.0, 0.0, 0.0, 0.0, 0.0, 0.0, 0.0, 0.0, 0.0)",0.244140625,0.122070313,1.831054688,"(0.0, 0.0, 0.0, 0.0, 0.0, 0.0, 0.0, 0.0, 0.0)",0.334960938,0.014355469,9.996191025,"(0.0, 0.0, 0.0, 0.0, 0.0, 0.0, 0.0, 0.0, 0.0)"
2024/07/10/17:01:10.984094,15729,1700604955,161829096,,0.346069336,-1.768798828,-4.207763672,0,"(0.0, 0.0, 0.0, 0.0, 0.0, 0.0, 0.0, 0.0, 0.0)",-0.122070313,-0.244140625,0.915527344,"(0.0, 0.0, 0.0, 0.0, 0.0, 0.0, 0.0, 0.0, 0.0)",0.287109375,0.038281251,9.646875381,"(0.0, 0.0, 0.0, 0.0, 0.0, 0.0, 0.0, 0.0, 0.0)"
2024/07/10/17:01:11.084069,15730,1700604955,261380890,,0.346069336,-1.790771484,-4.130859375,0,"(0.0, 0.0, 0.0, 0.0, 0.0, 0.0, 0.0, 0.0, 0.0)",-0.610351563,0,0,"(0.0, 0.0, 0.0, 0.0, 0.0, 0.0, 0.0, 0.0, 0.0)",0.521582007,0.1866211,9.713867188,"(0.0, 0.0, 0.0, 0.0, 0.0, 0.0, 0.0, 0.0, 0.0)"
2024/07/10/17:01:11.184243,15731,1700604955,361062867,,0.340576172,-1.807250977,-4.125366211,0,"(0.0, 0.0, 0.0, 0.0, 0.0, 0.0, 0.0, 0.0, 0.0)",-0.305175781,-0.122070313,0.427246094,"(0.0, 0.0, 0.0, 0.0, 0.0, 0.0, 0.0, 0.0, 0.0)",0.267968744,0.100488283,9.948339462,"(0.0, 0.0, 0.0, 0.0, 0.0, 0.0, 0.0, 0.0, 0.0)"
2024/07/10/17:01:11.284613,15732,1700604955,460821010,,0.390014648,-1.812744141,-4.092407227,0,"(0.0, 0.0, 0.0, 0.0, 0.0, 0.0, 0.0, 0.0, 0.0)",0.793457031,0.183105469,0,"(0.0, 0.0, 0.0, 0.0, 0.0, 0.0, 0.0, 0.0, 0.0)",0.38759765,0.354101568,9.670801163,"(0.0, 0.0, 0.0, 0.0, 0.0, 0.0, 0.0, 0.0, 0.0)"
2024/07/10/17:01:11.386217,15733,1700604955,560339877,,0.428466797,-1.845703125,-4.174804688,0,"(0.0, 0.0, 0.0, 0.0, 0.0, 0.0, 0.0, 0.0, 0.0)",0,-0.427246094,-0.305175781,"(0.0, 0.0, 0.0, 0.0, 0.0, 0.0, 0.0, 0.0, 0.0)",0.339746088,0.19140625,9.632519722,"(0.0, 0.0, 0.0, 0.0, 0.0, 0.0, 0.0, 0.0, 0.0)"
2024/07/10/17:01:11.485414,15734,1700604955,659960262,,0.450439453,-1.845703125,-4.202270508,0,"(0.0, 0.0, 0.0, 0.0, 0.0, 0.0, 0.0, 0.0, 0.0)",-0.244140625,0.122070313,0.244140625,"(0.0, 0.0, 0.0, 0.0, 0.0, 0.0, 0.0, 0.0, 0.0)",0.153125003,0.100488283,9.819140434,"(0.0, 0.0, 0.0, 0.0, 0.0, 0.0, 0.0, 0.0, 0.0)"
2024/07/10/17:01:11.592394,15735,1700604955,759636091,,0.439453125,-1.851196289,-4.207763672,0,"(0.0, 0.0, 0.0, 0.0, 0.0, 0.0, 0.0, 0.0, 0.0)",-0.244140625,-0.854492188,-0.793457031,"(0.0, 0.0, 0.0, 0.0, 0.0, 0.0, 0.0, 0.0, 0.0)",0.325390637,-0.004785156,9.756933212,"(0.0, 0.0, 0.0, 0.0, 0.0, 0.0, 0.0, 0.0, 0.0)"
2024/07/10/17:01:11.683049,15736,1700604955,859332346,,0.439453125,-1.873168945,-4.389038086,0,"(0.0, 0.0, 0.0, 0.0, 0.0, 0.0, 0.0, 0.0, 0.0)",-0.122070313,0.122070313,-2.075195313,"(0.0, 0.0, 0.0, 0.0, 0.0, 0.0, 0.0, 0.0, 0.0)",0.325390637,0.167480469,9.426757813,"(0.0, 0.0, 0.0, 0.0, 0.0, 0.0, 0.0, 0.0, 0.0)"
2024/07/10/17:01:11.781960,15737,1700604955,958986546,,0.422973633,-1.867675781,-4.581298828,0,"(0.0, 0.0, 0.0, 0.0, 0.0, 0.0, 0.0, 0.0, 0.0)",0,0.244140625,-2.136230469,"(0.0, 0.0, 0.0, 0.0, 0.0, 0.0, 0.0, 0.0, 0.0)",0.177050784,0.071777344,9.886133194,"(0.0, 0.0, 0.0, 0.0, 0.0, 0.0, 0.0, 0.0, 0.0)"
2024/07/10/17:01:11.884383,15738,1700604956,58585709,,0.428466797,-1.862182617,-4.724121094,0,"(0.0, 0.0, 0.0, 0.0, 0.0, 0.0, 0.0, 0.0, 0.0)",-0.549316406,0.061035156,-1.46484375,"(0.0, 0.0, 0.0, 0.0, 0.0, 0.0, 0.0, 0.0, 0.0)",0.291894525,0.114843749,9.823925972,"(0.0, 0.0, 0.0, 0.0, 0.0, 0.0, 0.0, 0.0, 0.0)"
2024/07/10/17:01:11.982970,15739,1700604956,158263741,,0.439453125,-1.862182617,-4.833984375,0,"(0.0, 0.0, 0.0, 0.0, 0.0, 0.0, 0.0, 0.0, 0.0)",0.061035156,0,-1.037597656,"(0.0, 0.0, 0.0, 0.0, 0.0, 0.0, 0.0, 0.0, 0.0)",0.239257813,0.071777344,9.800000191,"(0.0, 0.0, 0.0, 0.0, 0.0, 0.0, 0.0, 0.0, 0.0)"
2024/07/10/17:01:12.080675,15740,1700604956,258018032,,0.472412109,-1.867675781,-4.899902344,0,"(0.0, 0.0, 0.0, 0.0, 0.0, 0.0, 0.0, 0.0, 0.0)",0.427246094,-0.061035156,-0.793457031,"(0.0, 0.0, 0.0, 0.0, 0.0, 0.0, 0.0, 0.0, 0.0)",0.253613293,0.066992186,9.737792969,"(0.0, 0.0, 0.0, 0.0, 0.0, 0.0, 0.0, 0.0, 0.0)"
2024/07/10/17:01:12.180300,15741,1700604956,357589770,,0.472412109,-1.873168945,-4.927368164,0,"(0.0, 0.0, 0.0, 0.0, 0.0, 0.0, 0.0, 0.0, 0.0)",0.122070313,-0.305175781,-0.671386719,"(0.0, 0.0, 0.0, 0.0, 0.0, 0.0, 0.0, 0.0, 0.0)",0.301464856,0.10527344,9.804784775,"(0.0, 0.0, 0.0, 0.0, 0.0, 0.0, 0.0, 0.0, 0.0)"
2024/07/10/17:01:12.280372,15742,1700604956,457205488,,0.472412109,-1.889648438,-4.910888672,0,"(0.0, 0.0, 0.0, 0.0, 0.0, 0.0, 0.0, 0.0, 0.0)",0.732421875,0,2.9296875,"(0.0, 0.0, 0.0, 0.0, 0.0, 0.0, 0.0, 0.0, 0.0)",-0.124414064,-0.162695318,9.929199219,"(0.0, 0.0, 0.0, 0.0, 0.0, 0.0, 0.0, 0.0, 0.0)"
